Folder: CaloCem/CaloCem/DATA

File: calorimetry_data_2.csv
"Time","Temperature","Heat flow","Heat","Normalized heat flow","Normalized heat","Time markers"
-1896.27,20,NaN,NaN,NaN,NaN,""
-1892.69,20,-4.39069e-06,NaN,-1.02443e-06,NaN,""
-1885.89,20,-4.16509e-06,NaN,-9.71789e-07,NaN,""
-1871.83,20,-4.42961e-06,NaN,-1.03351e-06,NaN,""
-1850.56,20,-3.77603e-06,NaN,-8.81015e-07,NaN,""
-1793.06,20,-3.57339e-06,NaN,-8.33735e-07,NaN,""
-1753.35,20,-2.6964e-06,NaN,-6.29118e-07,NaN,""
-1681.25,20,-2.52434e-06,NaN,-5.88974e-07,NaN,""
-1577.74,20,-2.74842e-06,NaN,-6.41254e-07,NaN,""
-1543.58,20,-2.29643e-06,NaN,-5.35797e-07,NaN,""
-1520.51,20,-2.68283e-06,NaN,-6.25951e-07,NaN,""
-1491.86,20,-2.39938e-06,NaN,-5.59819e-07,NaN,""
-1468.19,20,-2.34983e-06,NaN,-5.48256e-07,NaN,""
-1455.81,20,-2.0222e-06,NaN,-4.71816e-07,NaN,""
-1421.17,20,-1.87444e-06,NaN,-4.37341e-07,NaN,""
-1380.35,20,-1.22315e-06,NaN,-2.85383e-07,NaN,""
-1352.82,20,-1.95341e-06,NaN,-4.55765e-07,NaN,""
-1313.52,20,-9.20105e-07,NaN,-2.14677e-07,NaN,""
-1275.76,20,-1.50489e-06,NaN,-3.51119e-07,NaN,""
-1235.16,20,-3.52718e-07,NaN,-8.22953e-08,NaN,""
-1213.58,20,-1.09058e-06,NaN,-2.54452e-07,NaN,""
-1194.95,20,-1.03306e-06,NaN,-2.41032e-07,NaN,""
-1180.19,20,-1.22284e-06,NaN,-2.85311e-07,NaN,""
-1165.99,20,-8.75453e-07,NaN,-2.04259e-07,NaN,""
-1134.8,20,-1.07996e-06,NaN,-2.51975e-07,NaN,""
-1122.5,20,-1.26121e-06,NaN,-2.94264e-07,NaN,""
-1107.44,20,-8.03635e-07,NaN,-1.87502e-07,NaN,""
-1080.98,20,-7.79121e-07,NaN,-1.81783e-07,NaN,""
-1068.19,20,-3.0021e-07,NaN,-7.00444e-08,NaN,""
-1057.17,20,-3.89138e-07,NaN,-9.07928e-08,NaN,""
-1029.2,20,-8.61484e-08,NaN,-2.00999e-08,NaN,""
-1011.53,20,-1.95528e-07,NaN,-4.56201e-08,NaN,""
-994.994,20,1.49709e-07,NaN,3.49298e-08,NaN,""
-960.01,20,-1.41458e-07,NaN,-3.30047e-08,NaN,""
-900.414,20,5.81735e-07,NaN,1.35729e-07,NaN,""
-794.968,20,7.61997e-07,NaN,1.77787e-07,NaN,""
-766.093,20,4.29343e-07,NaN,1.00173e-07,NaN,""
-746.873,20,1.14112e-06,NaN,2.66244e-07,NaN,""
-680.719,20,1.5467e-06,NaN,3.60872e-07,NaN,""
-655.256,20,2.2973e-06,NaN,5.36002e-07,NaN,""
-636.599,20,2.68201e-06,NaN,6.2576e-07,NaN,""
-619.353,20,2.25194e-06,NaN,5.25417e-07,NaN,""
-610.689,20,2.48619e-06,NaN,5.80072e-07,NaN,""
-602.135,20,2.11836e-06,NaN,4.94251e-07,NaN,""
-547.489,20,1.96803e-06,NaN,4.59176e-07,NaN,""
-495.08,20,1.99304e-06,NaN,4.65012e-07,NaN,""
-479.049,20,1.66788e-06,NaN,3.89147e-07,NaN,""
-454.963,20,2.36175e-06,NaN,5.51039e-07,NaN,""
-427.574,20,2.01003e-06,NaN,4.68976e-07,NaN,""
-374.723,20,1.998e-06,NaN,4.66169e-07,NaN,""
-339.9,20,2.69322e-06,NaN,6.28376e-07,NaN,""
-315.121,20,2.54174e-06,NaN,5.93033e-07,NaN,""
-293.836,20,2.82217e-06,NaN,6.58462e-07,NaN,""
-258.336,20,2.8497e-06,NaN,6.64886e-07,NaN,""
-210.689,20,3.7543e-06,NaN,8.75944e-07,NaN,""
-190.032,20,3.58312e-06,NaN,8.36005e-07,NaN,""
-165.861,20,4.13285e-06,NaN,9.64268e-07,NaN,""
-144.217,20,3.72969e-06,NaN,8.70204e-07,NaN,""
-130.142,20,4.22236e-06,NaN,9.85151e-07,NaN,""
-114.099,20,4.00004e-06,NaN,9.33281e-07,NaN,""
-96.6892,20,4.47698e-06,NaN,1.04456e-06,NaN,""
16335.2,20,NaN,NaN,NaN,NaN,"Reaction start. Measuring position. Signal correct"
16335.3,20,0.000284524,2.12585e-05,6.63846e-05,4.95999e-06,""
16867.3,20,0.195022,2.87076,0.0455021,0.669799,""
16924.3,20,0.363084,20.4691,0.0847141,4.7758,""
16982.3,20,0.33388,41.0511,0.0779002,9.57796,""
17082.3,20,0.229625,69.1587,0.0535756,16.136,""
17167.7,20,0.160477,85.6574,0.0374421,19.9854,""
17264.3,20,0.107378,98.406,0.0250532,22.9599,""
17356.7,20,0.0742257,106.694,0.0173182,24.8936,""
17485.6,20,0.0457621,114.252,0.0106771,26.657,""
17649.1,20,0.02634,119.966,0.0061456,27.9903,""
17854,20,0.0146794,124.011,0.00342497,28.934,""
18129.9,20,0.00813895,127.015,0.00189896,29.6349,""
18564.1,20,0.00476036,129.661,0.00111068,30.2523,""
19397.2,20,0.00320637,132.823,0.000748104,30.9899,""
20937.2,20,0.00235251,137.004,0.000548881,31.9654,""
22656.4,20,0.00195201,140.649,0.000455438,32.816,""
23989.4,20,0.00187611,143.164,0.00043773,33.4027,""
25466.8,20,0.00213769,146.133,0.00049876,34.0953,""
26728.9,20,0.00232831,148.95,0.000543236,34.7528,""
28262.9,20,0.00259743,152.721,0.000606026,35.6326,""
29853.8,20,0.00293581,157.114,0.000684977,36.6576,""
31241.8,20,0.00327985,161.423,0.000765248,37.6628,""
32575.4,20,0.00365341,166.042,0.000852406,38.7405,""
34051.9,20,0.00410683,171.766,0.000958195,40.0761,""
35852.6,20,0.00471171,179.699,0.00109933,41.9271,""
37773,20,0.00539587,189.399,0.00125895,44.1902,""
38826.3,20,0.00578053,195.285,0.0013487,45.5635,""
40421.9,20,0.00636244,204.974,0.00148447,47.8241,""
41678.8,20,0.0068117,213.254,0.00158929,49.756,""
43426.6,20,0.00740754,225.686,0.00172831,52.6565,""
45005.8,20,0.00790493,237.783,0.00184436,55.479,""
46961.8,20,0.00844511,253.788,0.00197039,59.2133,""
48089.3,20,0.0087139,263.465,0.00203311,61.4711,""
49833,20,0.0090614,278.975,0.00211419,65.0897,""
51210.3,20,0.00927596,291.609,0.00216425,68.0375,""
52457.2,20,0.00942571,303.273,0.00219919,70.7591,""
54113.2,20,0.00956476,319.007,0.00223163,74.43,""
55786,20,0.00963693,335.075,0.00224847,78.179,""
57442,20,0.00965356,351.054,0.00225235,81.9072,""
58918.3,20,0.00962987,365.293,0.00224682,85.2293,""
60493.9,20,0.00957261,380.425,0.00223346,88.7598,""
62359.4,20,0.00948089,398.199,0.00221206,92.9068,""
63639.1,20,0.00943144,410.295,0.00220052,95.7291,""
64803.2,20,0.00944349,421.275,0.00220333,98.291,""
66030.2,20,0.00946756,432.881,0.00220895,100.999,""
67543.5,20,0.00944465,447.201,0.00220361,104.34,""
69232.8,20,0.00933985,463.078,0.00217915,108.044,""
70649.8,20,0.00920429,476.22,0.00214752,111.111,""
71885,20,0.00906334,487.503,0.00211464,113.743,""
72959.2,20,0.00893296,497.171,0.00208422,115.999,""
74792.5,20,0.00870177,513.337,0.00203028,119.771,""
76282.9,20,0.00851099,526.163,0.00198576,122.763,""
78006.8,20,0.00829134,540.646,0.00193452,126.142,""
79397.8,20,0.00811693,552.057,0.00189382,128.805,""
80788.6,20,0.00794503,563.226,0.00185372,131.411,""
82760.8,20,0.00770886,578.661,0.00179861,135.012,""
84147.9,20,0.00754779,589.241,0.00176103,137.48,""
85504.3,20,0.00739501,599.374,0.00172539,139.845,""
86771.6,20,0.00725655,608.658,0.00169308,142.011,""
88146.4,20,0.00711314,618.535,0.00165962,144.315,""
89867.3,20,0.00694054,630.625,0.00161935,147.136,""
91484.8,20,0.00678506,641.725,0.00158307,149.726,""
93351.3,20,0.00661266,654.227,0.00154285,152.643,""
94535.8,20,0.00650903,661.998,0.00151867,154.456,""
96164.2,20,0.00636986,672.483,0.0014862,156.902,""
97390,20,0.0062672,680.227,0.00146225,158.709,""
98696.5,20,0.00616002,688.345,0.00143724,160.603,""
100212,20,0.00603924,697.588,0.00140906,162.76,""
101617,20,0.00592872,705.996,0.00138328,164.721,""
103153,20,0.00580756,715.008,0.00135501,166.824,""
104388,20,0.00571066,722.121,0.0013324,168.484,""
105763,20,0.00560254,729.899,0.00130717,170.298,""
107117,20,0.00549795,737.414,0.00128277,172.052,""
108624,20,0.0053808,745.611,0.00125544,173.964,""
109796,20,0.00529032,751.865,0.00123433,175.423,""
111228,20,0.00518106,759.36,0.00120883,177.172,""
113033,20,0.00504304,768.588,0.00117663,179.325,""
114564,20,0.00492801,776.221,0.00114979,181.106,""
115746,20,0.00483917,781.989,0.00112907,182.452,""
117182,20,0.00473238,788.864,0.00110415,184.056,""
118677,20,0.00462085,795.855,0.00107813,185.687,""
120246,20,0.00450752,803.018,0.00105168,187.358,""
121293,20,0.00443307,807.695,0.00103431,188.45,""
122660,20,0.00433599,813.687,0.00101166,189.848,""
123843,20,0.0042535,818.768,0.000992416,191.033,""
124884,20,0.0041839,823.16,0.000976177,192.058,""
126524,20,0.00407324,829.932,0.000950359,193.638,""
128238,20,0.00396124,836.819,0.000924227,195.245,""
129672,20,0.00386842,842.43,0.00090257,196.554,""
131180,20,0.00377485,848.192,0.000880739,197.898,""
132482,20,0.00369665,853.058,0.000862495,199.034,""
134218,20,0.00359805,859.391,0.00083949,200.511,""
135858,20,0.0035058,865.213,0.000817966,201.87,""
137147,20,0.00343672,869.691,0.000801847,202.914,""
138521,20,0.00336325,874.362,0.000784707,204.004,""
140027,20,0.00328566,879.367,0.000766602,205.172,""
141461,20,0.00321333,884.029,0.000749726,206.26,""
142885,20,0.00314381,888.555,0.000733507,207.316,""
144170,20,0.00308202,892.553,0.000719091,208.248,""
145926,20,0.00300157,897.896,0.00070032,209.495,""
147271,20,0.00294184,901.891,0.000686383,210.427,""
149064,20,0.00286632,907.098,0.000668764,211.642,""
150418,20,0.00281071,910.94,0.000655789,212.538,""
151704,20,0.00276046,914.522,0.000644064,213.374,""
153029,20,0.00271081,918.148,0.00063248,214.22,""
154366,20,0.00266299,921.741,0.000621323,215.059,""
156074,20,0.00260549,926.239,0.000607907,216.108,""
157327,20,0.00256548,929.479,0.000598572,216.864,""
159397,20,0.00250234,934.723,0.000583841,218.088,""
160935,20,0.00245745,938.537,0.000573366,218.977,""
162947,20,0.00240301,943.426,0.000560664,220.118,""
164278,20,0.0023685,946.603,0.000552613,220.859,""
165360,20,0.00234165,949.151,0.000546349,221.454,""
167344,20,0.00229683,953.753,0.000535892,222.527,""
169022,20,0.00225891,957.576,0.000527045,223.42,""
171095,20,0.00221781,962.217,0.000517455,224.502,""
172445,20,0.00219322,965.193,0.000511717,225.197,""
173876,20,0.00216922,968.313,0.000506117,225.925,""
175370,20,0.00214087,971.533,0.000499502,226.676,""
176935,20,0.0021179,974.865,0.000494143,227.453,""
178539,20,0.00209384,978.242,0.000488529,228.241,""
180080,20,0.00207184,981.452,0.000483397,228.99,""
181676,20,0.00204798,984.74,0.00047783,229.757,""
183120,20,0.00202935,987.684,0.000473484,230.444,""
184502,20,0.00200984,990.477,0.000468932,231.096,""
185850,20,0.00199064,993.173,0.000464452,231.725,""
187260,20,0.00197539,995.968,0.000460894,232.377,""
188699,20,0.00195926,998.801,0.000457129,233.038,""
190570,20,0.00193786,1002.45,0.000452137,233.889,""
192233,20,0.00192024,1005.65,0.000448027,234.637,""
193773,20,0.00190335,1008.6,0.000444085,235.324,""
195403,20,0.0018866,1011.69,0.000440177,236.045,""
197341,20,0.00186755,1015.32,0.000435733,236.893,""
198848,20,0.00185262,1018.13,0.00043225,237.547,""
200571,20,0.00183664,1021.31,0.000428521,238.289,""
201770,20,0.00182611,1023.5,0.000426065,238.801,""
203095,20,0.00181306,1025.91,0.000423018,239.364,""
204830,20,0.00179743,1029.04,0.000419373,240.094,""
206410,20,0.00178417,1031.88,0.000416277,240.755,""
208308,20,0.00176787,1035.25,0.000412475,241.542,""
210130,20,0.00175229,1038.45,0.00040884,242.29,""
211375,20,0.00174143,1040.63,0.000406307,242.797,""
212844,20,0.00172986,1043.18,0.000403606,243.392,""
214456,20,0.0017159,1045.96,0.000400349,244.04,""
216172,20,0.00170334,1048.89,0.000397419,244.724,""
217502,20,0.00169312,1051.15,0.000395035,245.251,""
219278,20,0.00167922,1054.14,0.000391792,245.95,""
221621,20,0.00165999,1058.05,0.000387305,246.863,""
223132,20,0.00164705,1060.55,0.000384287,247.446,""
224837,20,0.0016338,1063.35,0.000381196,248.099,""
226780,20,0.00161886,1066.51,0.000377709,248.836,""
228533,20,0.00160505,1069.34,0.000374486,249.495,""
230449,20,0.00159211,1072.4,0.000371467,250.21,""
232172,20,0.00157699,1075.13,0.00036794,250.847,""
234130,20,0.00156173,1078.2,0.00036438,251.564,""
235792,20,0.00154945,1080.79,0.000361513,252.167,""
237850,20,0.00153326,1083.96,0.000357737,252.907,""
239030,20,0.00152541,1085.77,0.000355905,253.329,""
240567,20,0.00151475,1088.1,0.000353418,253.874,""
241882,20,0.00150486,1090.09,0.000351112,254.337,""
243576,20,0.00149197,1092.63,0.000348103,254.929,""
244659,20,0.001484,1094.24,0.000346244,255.305,""
246943,20,0.00146771,1097.61,0.000342443,256.092,""
248555,20,0.00145634,1099.96,0.000339789,256.641,""
249646,20,0.00144661,1101.55,0.000337519,257.011,""
251808,20,0.00143136,1104.66,0.000333962,257.737,""
253307,20,0.0014195,1106.8,0.000331195,258.235,""
255190,20,0.00140609,1109.46,0.000328067,258.856,""
257524,20,0.00139026,1112.72,0.000324373,259.618,""
259041,20,0.00138136,1114.82,0.000322295,260.108,""
260693,20,0.00136987,1117.1,0.000319615,260.638,""
262323,20,0.00135871,1119.32,0.00031701,261.158,""
263906,20,0.00135,1121.46,0.00031498,261.658,""
265361,20,0.00133877,1123.42,0.00031236,262.114,""
266973,20,0.0013275,1125.57,0.000309729,262.615,""
268884,20,0.00131355,1128.09,0.000306475,263.204,""
270618,20,0.00130069,1130.36,0.000303474,263.733,""
272553,20,0.00128899,1132.86,0.000300744,264.318,""
274445,20,0.00127788,1135.29,0.000298153,264.884,""
276351,20,0.00126541,1137.72,0.000295242,265.449,""
278573,20,0.00124731,1140.51,0.00029102,266.101,""
280113,20,0.00123858,1142.42,0.000288982,266.547,""
281401,20,0.00122981,1144.01,0.000286937,266.918,""
282426,20,0.00122246,1145.27,0.000285223,267.211,""
284221,20,0.00121014,1147.45,0.000282348,267.721,""
285853,20,0.00120109,1149.42,0.000280237,268.18,""
287820,20,0.00118889,1151.77,0.00027739,268.729,""
290045,20,0.00117556,1154.4,0.00027428,269.342,""
292084,20,0.00116211,1156.78,0.000271142,269.898,""
293534,20,0.00115292,1158.46,0.000268997,270.29,""
293535,20,NaN,NaN,NaN,NaN,"Ampoule removed"
294962,20,NaN,NaN,NaN,NaN,""
294964,20,NaN,NaN,NaN,NaN,""
294965,20,NaN,NaN,NaN,NaN,""
294966,20,NaN,NaN,NaN,NaN,""
294967,20,NaN,NaN,NaN,NaN,""
294968,20,NaN,NaN,NaN,NaN,""
294969,20,NaN,NaN,NaN,NaN,""
294970,20,NaN,NaN,NaN,NaN,""
294971,20,NaN,NaN,NaN,NaN,""
294972,20,NaN,NaN,NaN,NaN,""
294973,20,NaN,NaN,NaN,NaN,""
294974,20,NaN,NaN,NaN,NaN,""
294975,20,NaN,NaN,NaN,NaN,""
294976,20,NaN,NaN,NaN,NaN,""
294977,20,NaN,NaN,NaN,NaN,""
294978,20,NaN,NaN,NaN,NaN,""
294979,20,NaN,NaN,NaN,NaN,""
294980,20,NaN,NaN,NaN,NaN,""
294981,20,NaN,NaN,NaN,NaN,""
294982,20,NaN,NaN,NaN,NaN,""
294983,20,NaN,NaN,NaN,NaN,""
294984,20,NaN,NaN,NaN,NaN,""
294985,20,NaN,NaN,NaN,NaN,""
294986,20,NaN,NaN,NaN,NaN,""
294987,20,NaN,NaN,NaN,NaN,""
294988,20,NaN,NaN,NaN,NaN,""
294989,20,NaN,NaN,NaN,NaN,""
294990,20,NaN,NaN,NaN,NaN,""
294991,20,NaN,NaN,NaN,NaN,""
294992,20,NaN,NaN,NaN,NaN,""
294993,20,NaN,NaN,NaN,NaN,""
294994,20,NaN,NaN,NaN,NaN,""
294995,20,NaN,NaN,NaN,NaN,""
294996,20,NaN,NaN,NaN,NaN,""
294997,20,NaN,NaN,NaN,NaN,""
294998,20,NaN,NaN,NaN,NaN,""
294999,20,NaN,NaN,NaN,NaN,""
295000,20,NaN,NaN,NaN,NaN,""
295001,20,NaN,NaN,NaN,NaN,""
295002,20,NaN,NaN,NaN,NaN,""
295003,20,NaN,NaN,NaN,NaN,""
295004,20,NaN,NaN,NaN,NaN,""
295005,20,NaN,NaN,NaN,NaN,""
295006,20,NaN,NaN,NaN,NaN,""
295007,20,NaN,NaN,NaN,NaN,""
295008,20,NaN,NaN,NaN,NaN,""
295009,20,NaN,NaN,NaN,NaN,""
295010,20,NaN,NaN,NaN,NaN,""
295011,20,NaN,NaN,NaN,NaN,""
295012,20,NaN,NaN,NaN,NaN,""
295013,20,NaN,NaN,NaN,NaN,""
295014,20,NaN,NaN,NaN,NaN,""
295015,20,NaN,NaN,NaN,NaN,""
295016,20,NaN,NaN,NaN,NaN,""
295017,20,NaN,NaN,NaN,NaN,""
295018,20,NaN,NaN,NaN,NaN,""
295019,20,NaN,NaN,NaN,NaN,""
295020,20,NaN,NaN,NaN,NaN,""
295021,20,NaN,NaN,NaN,NaN,""