Folder: CaloCem/TAInstCalorimetry/DATA (part 2)

File: calorimetry_data_4.csv
"Time","Temperature [AmbientT(Therm3T)]","Temperature [Temperature]","Heat flow [Signal]","Heat [Signal]","Normalized heat flow [Signal]","Normalized heat [Signal]","Time markers"
-2213.15,24.0542,19.9999,-1.17463e-06,NaN,-2.74189e-07,NaN,""
-2188.97,24.0502,19.9997,-1.22497e-06,NaN,-2.85941e-07,NaN,""
-2174.02,24.0455,19.9997,-1.25612e-06,NaN,-2.93212e-07,NaN,""
-2152.22,24.0367,19.9997,-1.35148e-06,NaN,-3.15472e-07,NaN,""
-2135.21,24.0299,19.9997,-1.43342e-06,NaN,-3.34598e-07,NaN,""
-2131.08,24.0282,19.9997,-1.42084e-06,NaN,-3.31663e-07,NaN,""
-2116.15,24.0222,19.9993,-1.37537e-06,NaN,-3.21047e-07,NaN,""
-2100.62,24.0168,19.9996,-1.32805e-06,NaN,-3.10002e-07,NaN,""
-2085.08,24.0285,19.9999,-1.30935e-06,NaN,-3.05636e-07,NaN,""
-2064.1,24.0443,19.9999,-1.29011e-06,NaN,-3.01145e-07,NaN,""
-2042.75,24.0305,19.9998,-1.27054e-06,NaN,-2.96577e-07,NaN,""
-2035.24,24.0256,19.9998,-1.10171e-06,NaN,-2.5717e-07,NaN,""
-2029.89,23.9847,19.9998,-9.81379e-07,NaN,-2.2908e-07,NaN,""
-2024.88,23.9496,19.9998,-9.80087e-07,NaN,-2.28778e-07,NaN,""
-1993.52,24.0096,19.9997,-9.72005e-07,NaN,-2.26892e-07,NaN,""
-1970.67,24.0218,19.9997,-9.04333e-07,NaN,-2.11095e-07,NaN,""
-1966.05,24.0243,19.9997,-8.81122e-07,NaN,-2.05677e-07,NaN,""
-1943.64,24.0419,19.9996,-7.68579e-07,NaN,-1.79407e-07,NaN,""
-1924.65,24.0776,19.9995,-6.7322e-07,NaN,-1.57147e-07,NaN,""
-1907,24.0525,19.9997,-4.76039e-07,NaN,-1.1112e-07,NaN,""
-1892.67,24.0322,19.9999,-2.82708e-07,NaN,-6.59917e-08,NaN,""
-1875.02,24.0184,20,-4.45644e-08,NaN,-1.04025e-08,NaN,""
-1859.49,24.0086,20.0001,8.62835e-08,NaN,2.01409e-08,NaN,""
-1858.29,24.0078,20.0001,9.61572e-08,NaN,2.24456e-08,NaN,""
-1852.41,24.062,20.0001,1.4445e-07,NaN,3.37185e-08,NaN,""
-1848.34,24.0795,20,1.77908e-07,NaN,4.15285e-08,NaN,""
-1837.96,24.06,19.9997,2.63255e-07,NaN,6.14508e-08,NaN,""
-1811.87,24.011,19.9997,4.77715e-07,NaN,1.11511e-07,NaN,""
-1787.06,24.018,19.9998,6.7532e-07,NaN,1.57638e-07,NaN,""
-1757.02,24.0265,20.0001,6.58088e-07,NaN,1.53615e-07,NaN,""
-1742.65,24.0305,20.0002,8.60881e-07,NaN,2.00953e-07,NaN,""
-1730.15,24.0319,20,9.95207e-07,NaN,2.32308e-07,NaN,""
-1706.01,24.0319,19.9997,7.94139e-07,NaN,1.85373e-07,NaN,""
-1681.86,24.0319,19.9996,5.87841e-07,NaN,1.37218e-07,NaN,""
-1661.71,24.032,19.9996,3.64056e-07,NaN,8.49804e-08,NaN,""
-1649.52,24.0675,19.9995,2.28609e-07,NaN,5.33633e-08,NaN,""
-1640.8,24.0813,19.9995,2.02848e-07,NaN,4.73502e-08,NaN,""
-1622.97,24.0734,19.9996,1.5018e-07,NaN,3.50561e-08,NaN,""
-1580.93,24.0549,19.9999,-6.25272e-07,NaN,-1.45955e-07,NaN,""
-1564.79,24.0478,19.9997,-7.83334e-07,NaN,-1.82851e-07,NaN,""
-1552.77,24.0425,19.9995,-8.50401e-07,NaN,-1.98506e-07,NaN,""
-1543.3,24.0384,19.9995,-1.05935e-06,NaN,-2.4728e-07,NaN,""
-1533.84,24.0342,19.9997,-1.26829e-06,NaN,-2.96054e-07,NaN,""
-1525.26,24.0304,19.9998,-1.32442e-06,NaN,-3.09156e-07,NaN,""
-1516.86,24.0341,20,-1.38153e-06,NaN,-3.22486e-07,NaN,""
-1503.96,24.0397,19.9998,-1.62518e-06,NaN,-3.7936e-07,NaN,""
-1491.07,24.0454,19.9996,-1.86311e-06,NaN,-4.34899e-07,NaN,""
-1485.09,24.048,19.9996,-1.77334e-06,NaN,-4.13944e-07,NaN,""
-1479.11,24.0506,19.9997,-1.6876e-06,NaN,-3.93932e-07,NaN,""
-1464.88,24.0569,19.9998,-1.81511e-06,NaN,-4.23695e-07,NaN,""
-1449.99,24.0564,19.9999,-1.76677e-06,NaN,-4.12411e-07,NaN,""
-1435.09,24.0451,19.9992,-1.71843e-06,NaN,-4.01127e-07,NaN,""
-1427.76,24.0396,19.9992,-1.77294e-06,NaN,-4.13853e-07,NaN,""
-1420.43,24.034,19.9993,-1.82746e-06,NaN,-4.26578e-07,NaN,""
-1408.37,24.0248,19.9995,-1.55052e-06,NaN,-3.61933e-07,NaN,""
-1400.9,24.0387,19.9996,-1.52888e-06,NaN,-3.56883e-07,NaN,""
-1390.14,24.0587,19.9997,-1.6326e-06,NaN,-3.81092e-07,NaN,""
-1373,24.0863,19.9999,-1.37418e-06,NaN,-3.20771e-07,NaN,""
-1355.21,24.0507,19.9999,-1.10584e-06,NaN,-2.58134e-07,NaN,""
-1343.35,24.0332,19.9999,-1.12862e-06,NaN,-2.63451e-07,NaN,""
-1331.49,24.0371,19.9999,-1.1514e-06,NaN,-2.68768e-07,NaN,""
-1317.16,24.0417,19.9999,-8.26719e-07,NaN,-1.92978e-07,NaN,""
-1297.81,24.0479,19.9999,-7.37542e-07,NaN,-1.72162e-07,NaN,""
-1294.98,24.0488,19.9999,-6.60687e-07,NaN,-1.54222e-07,NaN,""
-1281.54,23.998,19.9999,-2.95612e-07,NaN,-6.90037e-08,NaN,""
-1271.93,23.9894,19.9999,-2.25775e-07,NaN,-5.2702e-08,NaN,""
-1256.31,24.0429,19.9999,-1.12184e-07,NaN,-2.61867e-08,NaN,""
-1242.77,24.0428,19.9999,1.3021e-07,NaN,3.03944e-08,NaN,""
-1233.24,24.0426,19.9999,2.78615e-07,NaN,6.50362e-08,NaN,""
-1211.71,24.0424,20,3.18672e-07,NaN,7.43865e-08,NaN,""
-1187.5,24.042,20,7.45481e-07,NaN,1.74015e-07,NaN,""
-1160.79,24.0417,20,6.51009e-07,NaN,1.51963e-07,NaN,""
-1147.54,24.0415,20.0001,7.88557e-07,NaN,1.8407e-07,NaN,""
-1127.02,24.0413,20.0001,6.07934e-07,NaN,1.41908e-07,NaN,""
-1089.48,24.0408,20.0001,4.19297e-07,NaN,9.7875e-08,NaN,""
-1069.02,24.0405,20.0002,5.94726e-07,NaN,1.38825e-07,NaN,""
-1053.93,24.0413,20.0002,4.78578e-07,NaN,1.11713e-07,NaN,""
-1033.24,24.0433,19.9995,3.19231e-07,NaN,7.4517e-08,NaN,""
-1021.84,24.0445,19.9994,3.97058e-07,NaN,9.2684e-08,NaN,""
-1010.45,24.0456,19.9994,4.74886e-07,NaN,1.10851e-07,NaN,""
-997.893,24.0469,19.9996,3.55203e-07,NaN,8.29139e-08,NaN,""
-978.797,24.0488,20.0001,1.73126e-07,NaN,4.04123e-08,NaN,""
-971.684,24.0495,20.0002,2.2681e-07,NaN,5.29435e-08,NaN,""
-964.57,24.0502,20,2.80494e-07,NaN,6.54748e-08,NaN,""
-956.895,24.0493,19.9998,2.48882e-07,NaN,5.80957e-08,NaN,""
-941.471,24.0452,19.9998,1.85361e-07,NaN,4.32682e-08,NaN,""
-913.086,24.0376,19.9998,5.85648e-07,NaN,1.36706e-07,NaN,""
-886.259,24.0304,19.9998,6.00747e-07,NaN,1.4023e-07,NaN,""
-867.664,24.0254,19.9997,6.11213e-07,NaN,1.42674e-07,NaN,""
-859.432,24.0703,19.9997,6.15847e-07,NaN,1.43755e-07,NaN,""
-853.674,24.0849,19.9996,6.89928e-07,NaN,1.61048e-07,NaN,""
-843.22,24.0713,19.9997,8.24431e-07,NaN,1.92444e-07,NaN,""
-832.766,24.0577,19.9998,8.32637e-07,NaN,1.9436e-07,NaN,""
-820.516,24.0417,19.9999,7.21544e-07,NaN,1.68428e-07,NaN,""
-801.537,24.0366,20.0001,8.39482e-07,NaN,1.95957e-07,NaN,""
-782.559,24.0507,19.9998,9.57419e-07,NaN,2.23487e-07,NaN,""
-765.995,24.0631,19.9996,9.79819e-07,NaN,2.28716e-07,NaN,""
-738.7,24.0425,19.9996,1.01673e-06,NaN,2.37332e-07,NaN,""
-725.766,24.0335,19.9996,1.03422e-06,NaN,2.41414e-07,NaN,""
-704.993,24.0481,19.9996,1.06231e-06,NaN,2.47972e-07,NaN,""
-684.22,24.0137,19.9997,1.0904e-06,NaN,2.54529e-07,NaN,""
-680.586,23.9797,19.9997,1.09532e-06,NaN,2.55676e-07,NaN,""
-676.11,24.0021,19.9998,1.08293e-06,NaN,2.52785e-07,NaN,""
-668.156,24.0543,19.9998,1.06092e-06,NaN,2.47648e-07,NaN,""
-645.5,24.0412,20,9.98236e-07,NaN,2.33015e-07,NaN,""
-634.324,24.0365,19.9997,8.91276e-07,NaN,2.08048e-07,NaN,""
-623.149,24.0408,19.9994,7.66705e-07,NaN,1.78969e-07,NaN,""
-610.721,24.0456,19.9996,6.24333e-07,NaN,1.45736e-07,NaN,""
-586.604,24.055,19.9999,3.43653e-07,NaN,8.02178e-08,NaN,""
-570.168,24.0565,19.9999,4.74908e-07,NaN,1.10856e-07,NaN,""
-542.582,24.0366,19.9998,7.2774e-07,NaN,1.69874e-07,NaN,""
-522.985,24.0374,19.9998,8.65273e-07,NaN,2.01978e-07,NaN,""
-464.828,24.0657,20,1.27342e-06,NaN,2.9725e-07,NaN,""
-450.243,24.0663,19.9999,1.16849e-06,NaN,2.72756e-07,NaN,""
-435.658,24.0658,19.9997,1.06356e-06,NaN,2.48262e-07,NaN,""
-415.149,24.0649,19.9995,1.26885e-06,NaN,2.96184e-07,NaN,""
-414.149,24.0649,19.9995,1.35843e-05,NaN,3.17094e-06,NaN,""
-412.797,24.0649,19.9995,NaN,NaN,NaN,NaN,""
-392.711,24.0641,19.9998,NaN,NaN,NaN,NaN,""
-363.899,24.0629,19.9995,NaN,NaN,NaN,NaN,""
[...]
287905,24.1986,20.0001,0.00116829,1135.14,0.000272711,264.972,""
290235,24.2427,19.9997,0.00115385,1137.85,0.00026934,265.603,""
292551,24.113,19.9997,0.00113991,1140.5,0.000266086,266.223,""
294066,24.1051,19.9999,0.00113035,1142.22,0.000263854,266.625,""
294066,24.1051,19.9999,NaN,NaN,NaN,NaN,"Ampoule removed"
294109,24.1103,19.9996,NaN,NaN,NaN,NaN,""
294152,24.0978,19.9993,NaN,NaN,NaN,NaN,""
294201,24.077,19.9999,NaN,NaN,NaN,NaN,""
294227,24.1138,19.9998,NaN,NaN,NaN,NaN,""
294253,24.1505,19.9997,NaN,NaN,NaN,NaN,""
294274,24.1446,19.9997,NaN,NaN,NaN,NaN,""
294295,24.1388,20.0003,NaN,NaN,NaN,NaN,""
294310,24.1271,20.0001,NaN,NaN,NaN,NaN,""
294327,24.1131,19.9994,NaN,NaN,NaN,NaN,""
294348,24.1092,19.9995,NaN,NaN,NaN,NaN,""
294370,24.1271,19.9996,NaN,NaN,NaN,NaN,""
294400,24.1518,19.9996,NaN,NaN,NaN,NaN,""
294428,24.1346,19.9996,NaN,NaN,NaN,NaN,""
294456,24.1171,20.0003,NaN,NaN,NaN,NaN,""
294485,24.1197,20.0002,NaN,NaN,NaN,NaN,""
294574,24.1284,19.9998,NaN,NaN,NaN,NaN,""
294724,24.143,19.9998,NaN,NaN,NaN,NaN,""
294763,24.145,19.9998,NaN,NaN,NaN,NaN,""
294802,24.1471,19.9998,NaN,NaN,NaN,NaN,""
294813,24.056,19.9998,NaN,NaN,NaN,NaN,""
294836,24.1354,19.9998,NaN,NaN,NaN,NaN,""
294870,24.1425,19.9998,NaN,NaN,NaN,NaN,""
294905,24.0897,19.9998,NaN,NaN,NaN,NaN,""
294909,24.1163,19.9998,NaN,NaN,NaN,NaN,""
294918,24.1787,19.9998,NaN,NaN,NaN,NaN,""
294957,24.1193,19.9996,NaN,NaN,NaN,NaN,""
294992,24.1108,19.9998,NaN,NaN,NaN,NaN,""
295003,24.1081,20,NaN,NaN,NaN,NaN,""
295033,24.1009,19.9998,NaN,NaN,NaN,NaN,""
295034,24.1007,19.9998,NaN,NaN,NaN,NaN,""
295066,24.0569,19.9999,NaN,NaN,NaN,NaN,""
295086,24.119,20,NaN,NaN,NaN,NaN,""
295094,24.1198,20,NaN,NaN,NaN,NaN,""
295114,24.1217,20.0005,NaN,NaN,NaN,NaN,""
295135,24.1237,19.9999,NaN,NaN,NaN,NaN,""
295150,24.1279,19.9996,NaN,NaN,NaN,NaN,""
295189,24.1382,19.9997,NaN,NaN,NaN,NaN,""
295200,24.0989,19.9998,NaN,NaN,NaN,NaN,""
295216,24.1401,19.9998,NaN,NaN,NaN,NaN,""
295233,24.1345,19.9998,NaN,NaN,NaN,NaN,""
295251,24.1288,19.9998,NaN,NaN,NaN,NaN,""
295278,24.0792,19.9998,NaN,NaN,NaN,NaN,""
295328,24.1245,19.9997,NaN,NaN,NaN,NaN,""
295342,24.1168,20.0001,NaN,NaN,NaN,NaN,""
295356,24.1056,20.0006,NaN,NaN,NaN,NaN,""
295366,24.0976,20.0003,NaN,NaN,NaN,NaN,""
295375,24.1009,20,NaN,NaN,NaN,NaN,""
295421,24.1176,19.9998,NaN,NaN,NaN,NaN,""
295448,24.1257,19.9998,NaN,NaN,NaN,NaN,""
295476,24.1232,19.9998,NaN,NaN,NaN,NaN,""
295506,24.1204,20.0004,NaN,NaN,NaN,NaN,""
295526,24.1186,20,NaN,NaN,NaN,NaN,""
295558,24.1157,20,NaN,NaN,NaN,NaN,""
295626,24.1095,19.9994,NaN,NaN,NaN,NaN,""
295638,24.1095,19.9998,NaN,NaN,NaN,NaN,""
295650,24.1122,20.0001,NaN,NaN,NaN,NaN,""
295701,24.1236,19.9998,NaN,NaN,NaN,NaN,""
295771,24.1392,19.9999,NaN,NaN,NaN,NaN,""
295791,24.1436,19.9994,NaN,NaN,NaN,NaN,""
295802,24.1338,19.9996,NaN,NaN,NaN,NaN,""
295809,24.1272,19.9997,NaN,NaN,NaN,NaN,""
295824,24.113,19.9994,NaN,NaN,NaN,NaN,""
295846,24.1262,19.9998,NaN,NaN,NaN,NaN,""
295859,24.1548,20,NaN,NaN,NaN,NaN,""
295868,24.0932,20.0002,NaN,NaN,NaN,NaN,""
295874,24.0865,20.0002,NaN,NaN,NaN,NaN,""
295911,24.1598,20,NaN,NaN,NaN,NaN,""
295939,24.1342,19.9999,NaN,NaN,NaN,NaN,""
295967,24.1086,19.9999,NaN,NaN,NaN,NaN,""
296006,24.1895,20,NaN,NaN,NaN,NaN,""
296041,24.1992,20.0001,NaN,NaN,NaN,NaN,""
296061,24.2425,19.9999,NaN,NaN,NaN,NaN,""
296087,24.317,19.9997,NaN,NaN,NaN,NaN,""
296108,24.1736,19.9996,NaN,NaN,NaN,NaN,""
296118,24.1734,19.9996,NaN,NaN,NaN,NaN,""
296133,24.1789,19.9997,NaN,NaN,NaN,NaN,""
296165,24.1476,19.9998,NaN,NaN,NaN,NaN,""
296182,24.2056,19.9999,NaN,NaN,NaN,NaN,""
296222,24.1922,20,NaN,NaN,NaN,NaN,""
296259,24.1811,20.0002,NaN,NaN,NaN,NaN,""
296309,24.2058,20.0005,NaN,NaN,NaN,NaN,""

File: calorimetry_data_5.csv
"Time","Temperature [AmbientT(Therm3T)]","Temperature [Temperature]","Heat flow [Signal]","Heat [Signal]","Normalized heat flow [Signal]","Normalized heat [Signal]","Time markers"
-2249.76,24.5374,19.9996,-1.49987e-06,NaN,-3.49865e-07,NaN,""
-2234.15,24.5,19.9999,-1.52302e-06,NaN,-3.55265e-07,NaN,""
-2225.12,24.5027,19.9998,-1.50327e-06,NaN,-3.50658e-07,NaN,""
-2204.04,24.509,19.9997,-1.38696e-06,NaN,-3.23526e-07,NaN,""
-2180.3,24.5151,19.9996,-1.47879e-06,NaN,-3.44947e-07,NaN,""
-2129.48,24.5107,19.9999,-1.6754e-06,NaN,-3.9081e-07,NaN,""
-2116.76,24.5096,19.9999,-1.74205e-06,NaN,-4.06357e-07,NaN,""
-2104.03,24.5085,19.9998,-1.8087e-06,NaN,-4.21903e-07,NaN,""
-2090.49,24.5159,19.9997,-1.59192e-06,NaN,-3.71336e-07,NaN,""
-2076.96,24.5283,19.9998,-1.37514e-06,NaN,-3.20769e-07,NaN,""
-2054.26,24.549,20.0002,-1.5952e-06,NaN,-3.72101e-07,NaN,""
-2050.38,24.5525,20.0002,-1.57361e-06,NaN,-3.67066e-07,NaN,""
-2043.63,24.5087,20.0001,-1.53601e-06,NaN,-3.58296e-07,NaN,""
-2039.85,24.5033,20.0001,-1.56471e-06,NaN,-3.64989e-07,NaN,""
-2027.76,24.5029,20,-1.65648e-06,NaN,-3.86397e-07,NaN,""
-2015.54,24.5025,19.9998,-1.37228e-06,NaN,-3.20102e-07,NaN,""
-2008.82,24.5023,19.9998,-1.33873e-06,NaN,-3.12277e-07,NaN,""
-1992.36,24.5018,19.9998,-1.3231e-06,NaN,-3.08632e-07,NaN,""
-1969.49,24.501,19.9998,-9.40192e-07,NaN,-2.19312e-07,NaN,""
-1945.91,24.4872,19.9998,-9.0777e-07,NaN,-2.11749e-07,NaN,""
-1922.44,24.467,19.9999,-8.75507e-07,NaN,-2.04224e-07,NaN,""
-1922.32,24.4669,19.9999,-8.75348e-07,NaN,-2.04187e-07,NaN,""
-1910.88,24.4684,19.9999,-6.317e-07,NaN,-1.47353e-07,NaN,""
-1899.43,24.4931,20,-3.88053e-07,NaN,-9.05185e-08,NaN,""
-1890.34,24.5126,20,-3.41855e-07,NaN,-7.97423e-08,NaN,""
-1881.26,24.5051,19.9999,-2.95658e-07,NaN,-6.89661e-08,NaN,""
-1866.13,24.4773,19.9998,1.35367e-08,NaN,3.15762e-09,NaN,""
-1858.01,24.5238,19.9997,1.79633e-07,NaN,4.19018e-08,NaN,""
-1845.81,24.5237,19.9996,4.16022e-07,NaN,9.70426e-08,NaN,""
-1835.21,24.5235,19.9997,6.11634e-07,NaN,1.42672e-07,NaN,""
-1818.13,24.5285,19.9998,6.09021e-07,NaN,1.42062e-07,NaN,""
-1784.95,24.5581,19.9999,6.03947e-07,NaN,1.40879e-07,NaN,""
-1765.13,24.5267,20,6.00916e-07,NaN,1.40172e-07,NaN,""
-1754.59,24.5235,20.0001,6.26935e-07,NaN,1.46241e-07,NaN,""
-1724.28,24.5237,20.0002,7.10484e-07,NaN,1.6573e-07,NaN,""
-1684.58,24.5241,19.9997,8.19871e-07,NaN,1.91246e-07,NaN,""
-1680.45,24.5241,19.9997,8.31241e-07,NaN,1.93898e-07,NaN,""
-1652.05,24.5243,19.9999,4.96924e-07,NaN,1.15914e-07,NaN,""
-1636.81,24.5245,20,2.17298e-07,NaN,5.06876e-08,NaN,""
-1626.22,24.5246,19.9999,9.05067e-08,NaN,2.11119e-08,NaN,""
-1615.46,24.5247,19.9999,4.95552e-08,NaN,1.15594e-08,NaN,""
-1604.92,24.525,19.9998,-9.49843e-08,NaN,-2.21564e-08,NaN,""
-1592.65,24.5254,19.9998,-4.05463e-07,NaN,-9.45797e-08,NaN,""
-1580.37,24.5258,19.9999,-6.38889e-07,NaN,-1.49029e-07,NaN,""
-1552.76,24.5266,20.0001,-8.99489e-07,NaN,-2.09818e-07,NaN,""
-1538.47,24.5271,19.9998,-1.13283e-06,NaN,-2.64247e-07,NaN,""
-1524.18,24.5275,19.9996,-1.37809e-06,NaN,-3.21458e-07,NaN,""
-1505.44,24.5281,19.9995,-1.50346e-06,NaN,-3.50702e-07,NaN,""
-1485.83,24.5288,19.9994,-1.37513e-06,NaN,-3.20767e-07,NaN,""
-1470.77,24.5292,19.9997,-1.58234e-06,NaN,-3.69101e-07,NaN,""
-1461.94,24.5295,19.9999,-1.70381e-06,NaN,-3.97436e-07,NaN,""
-1446.88,24.53,19.9999,-1.70676e-06,NaN,-3.98124e-07,NaN,""
-1428.57,24.5306,19.9999,-1.5351e-06,NaN,-3.58081e-07,NaN,""
-1404.09,24.5313,19.9999,-1.5295e-06,NaN,-3.56775e-07,NaN,""
-1394.58,24.5316,19.9999,-1.41997e-06,NaN,-3.31226e-07,NaN,""
-1376.79,24.5233,20,-1.21508e-06,NaN,-2.83434e-07,NaN,""
-1359,24.515,20,-1.07006e-06,NaN,-2.49607e-07,NaN,""
-1316.1,24.4949,20.0001,-8.46074e-07,NaN,-1.97358e-07,NaN,""
-1316.07,24.4949,20.0001,-8.4543e-07,NaN,-1.97208e-07,NaN,""
-1300.75,24.5253,20.0001,-5.29716e-07,NaN,-1.23563e-07,NaN,""
-1293.04,24.4954,20.0001,-3.70822e-07,NaN,-8.64992e-08,NaN,""
-1286.59,24.4765,20.0001,-2.81459e-07,NaN,-6.5654e-08,NaN,""
-1248.22,24.5425,20,4.89374e-08,NaN,1.14153e-08,NaN,""
-1221.9,24.5344,19.9999,3.51171e-07,NaN,8.19152e-08,NaN,""
-1202.97,24.5286,19.9999,6.48675e-07,NaN,1.51312e-07,NaN,""
-1184.05,24.5355,20,7.89604e-07,NaN,1.84186e-07,NaN,""
-1161.28,24.5538,20,8.12121e-07,NaN,1.89438e-07,NaN,""
-1141.94,24.5693,19.9999,7.14009e-07,NaN,1.66552e-07,NaN,""
-1126.7,24.5487,19.9998,6.01926e-07,NaN,1.40407e-07,NaN,""
-1125.51,24.5455,19.9998,5.93181e-07,NaN,1.38367e-07,NaN,""
-1114.01,24.5148,19.9998,7.67817e-07,NaN,1.79104e-07,NaN,""
-1099.94,24.502,19.9997,7.88837e-07,NaN,1.84007e-07,NaN,""
-1077.4,24.5114,19.9997,8.22532e-07,NaN,1.91867e-07,NaN,""
-1054.86,24.5207,19.9998,7.71907e-07,NaN,1.80058e-07,NaN,""
-1023.81,24.5249,19.9999,6.32124e-07,NaN,1.47451e-07,NaN,""
-992.764,24.5194,20,6.59968e-07,NaN,1.53946e-07,NaN,""
-972.927,24.5159,19.9999,8.07147e-07,NaN,1.88278e-07,NaN,""
-946.98,24.5113,19.9998,4.12223e-07,NaN,9.61566e-08,NaN,""
-931.488,24.5188,19.9998,4.02497e-07,NaN,9.38878e-08,NaN,""
-902.647,24.5428,19.9999,5.87162e-07,NaN,1.36963e-07,NaN,""
-874.246,24.5664,19.9999,7.34865e-07,NaN,1.71417e-07,NaN,""
-850.94,24.5555,19.9999,7.48921e-07,NaN,1.74696e-07,NaN,""
-843.045,24.5518,19.9998,6.23984e-07,NaN,1.45553e-07,NaN,""
-819.416,24.5407,19.9995,9.44195e-07,NaN,2.20246e-07,NaN,""
-809.148,24.5392,19.9994,9.70088e-07,NaN,2.26286e-07,NaN,""
-804.756,24.5395,19.9994,9.81166e-07,NaN,2.2887e-07,NaN,""
-796.675,24.54,19.9996,9.41651e-07,NaN,2.19653e-07,NaN,""
-790.256,24.5404,19.9997,7.83472e-07,NaN,1.82755e-07,NaN,""
-782.175,24.5409,19.9998,8.9754e-07,NaN,2.09363e-07,NaN,""
-771.388,24.5416,19.9998,1.04982e-06,NaN,2.44885e-07,NaN,""
-745.056,24.5432,19.9998,1.05766e-06,NaN,2.46713e-07,NaN,""
-729.384,24.5442,19.9998,1.20166e-06,NaN,2.80304e-07,NaN,""
-715.039,24.5451,19.9998,1.31422e-06,NaN,3.0656e-07,NaN,""
-712.474,24.5453,19.9998,1.30055e-06,NaN,3.0337e-07,NaN,""
-693.506,24.6054,19.9997,1.19938e-06,NaN,2.79772e-07,NaN,""
-667.158,24.5533,19.9997,1.05887e-06,NaN,2.46995e-07,NaN,""
-651.504,24.5489,19.9996,9.26747e-07,NaN,2.16176e-07,NaN,""
-635.756,24.5569,19.9996,7.93836e-07,NaN,1.85173e-07,NaN,""
-618.08,24.5658,20.0001,6.44654e-07,NaN,1.50374e-07,NaN,""
-605.642,24.569,20.0003,5.39683e-07,NaN,1.25888e-07,NaN,""
-593.205,24.5675,20.0005,4.68721e-07,NaN,1.09335e-07,NaN,""
-560.781,24.5637,19.9999,7.29707e-07,NaN,1.70214e-07,NaN,""
-551.518,24.527,19.9998,8.04264e-07,NaN,1.87605e-07,NaN,""
-542.256,24.4903,19.9998,8.78821e-07,NaN,2.04997e-07,NaN,""
-524.261,24.519,19.9996,1.10799e-06,NaN,2.58453e-07,NaN,""
-506.267,24.5477,19.9996,1.3372e-06,NaN,3.1192e-07,NaN,""
-491.938,24.55,19.9998,1.35457e-06,NaN,3.15972e-07,NaN,""
-480.856,24.5518,19.9998,1.29914e-06,NaN,3.03041e-07,NaN,""
-469.774,24.5536,19.9996,1.43104e-06,NaN,3.33809e-07,NaN,""
-461.551,24.5549,19.9995,1.54079e-06,NaN,3.5941e-07,NaN,""
-456.11,24.5557,19.9995,1.55007e-06,NaN,3.61574e-07,NaN,""
-451.756,24.5564,19.9995,1.5575e-06,NaN,3.63307e-07,NaN,""
-450.756,24.5566,19.9995,1.4142e-05,NaN,3.29881e-06,NaN,""
-449.756,24.5568,19.9995,7.89289e-05,NaN,1.84112e-05,NaN,""
-427.158,24.5589,19.9998,NaN,NaN,NaN,NaN,""
-404.56,24.5482,20,NaN,NaN,NaN,NaN,""
-360.974,24.5275,20,NaN,NaN,NaN,NaN,""
-329.044,24.5402,19.9999,NaN,NaN,NaN,NaN,""
-296.404,24.5531,19.9997,NaN,NaN,NaN,NaN,""
-290.83,24.5549,19.9995,NaN,NaN,NaN,NaN,""
-285.256,24.5539,19.9992,NaN,NaN,NaN,NaN,""
[...]
294380,24.6669,19.9998,NaN,NaN,NaN,NaN,""
294390,24.6478,19.9998,NaN,NaN,NaN,NaN,""
294400,24.6288,19.9998,NaN,NaN,NaN,NaN,""
294423,24.6513,19.9997,NaN,NaN,NaN,NaN,""
294484,24.6263,19.9996,NaN,NaN,NaN,NaN,""
294490,24.639,19.9996,NaN,NaN,NaN,NaN,""
294502,24.6638,19.9998,NaN,NaN,NaN,NaN,""
294526,24.6445,20.0003,NaN,NaN,NaN,NaN,""
294538,24.6739,20.0002,NaN,NaN,NaN,NaN,""
294550,24.7032,20.0002,NaN,NaN,NaN,NaN,""
294562,24.6423,20.0001,NaN,NaN,NaN,NaN,""
294577,24.6779,20,NaN,NaN,NaN,NaN,""
294612,24.6777,19.9998,NaN,NaN,NaN,NaN,""
294635,24.6775,19.9996,NaN,NaN,NaN,NaN,""
294661,24.6705,20,NaN,NaN,NaN,NaN,""
294687,24.6403,20.0004,NaN,NaN,NaN,NaN,""
294713,24.6229,20,NaN,NaN,NaN,NaN,""
294739,24.6489,19.9996,NaN,NaN,NaN,NaN,""
294766,24.6445,19.9993,NaN,NaN,NaN,NaN,""
294781,24.642,19.9997,NaN,NaN,NaN,NaN,""
294787,24.6409,19.9999,NaN,NaN,NaN,NaN,""
294803,24.6383,20.0003,NaN,NaN,NaN,NaN,""
294839,24.6366,20.0001,NaN,NaN,NaN,NaN,""
294875,24.6509,19.9999,NaN,NaN,NaN,NaN,""
294881,24.6535,19.9999,NaN,NaN,NaN,NaN,""
294889,24.6114,19.9999,NaN,NaN,NaN,NaN,""
294928,24.6479,20,NaN,NaN,NaN,NaN,""
294950,24.6631,19.9997,NaN,NaN,NaN,NaN,""
294972,24.6709,19.9995,NaN,NaN,NaN,NaN,""
294987,24.6655,19.9996,NaN,NaN,NaN,NaN,""
294999,24.6129,19.9998,NaN,NaN,NaN,NaN,""
295014,24.6304,19.9998,NaN,NaN,NaN,NaN,""
295035,24.6553,19.9998,NaN,NaN,NaN,NaN,""
295063,24.6587,19.9997,NaN,NaN,NaN,NaN,""
295089,24.6606,19.9997,NaN,NaN,NaN,NaN,""
295129,24.6263,19.9997,NaN,NaN,NaN,NaN,""
295151,24.6299,20,NaN,NaN,NaN,NaN,""
295188,24.6409,20.0005,NaN,NaN,NaN,NaN,""
295197,24.6433,20.0003,NaN,NaN,NaN,NaN,""
295215,24.6967,20,NaN,NaN,NaN,NaN,""
295230,24.6367,19.9998,NaN,NaN,NaN,NaN,""
295246,24.6371,19.9997,NaN,NaN,NaN,NaN,""
295261,24.6375,19.9997,NaN,NaN,NaN,NaN,""
295286,24.6828,19.9997,NaN,NaN,NaN,NaN,""
295308,24.6378,19.9998,NaN,NaN,NaN,NaN,""
295329,24.6293,19.9998,NaN,NaN,NaN,NaN,""
295351,24.6208,19.9998,NaN,NaN,NaN,NaN,""
295382,24.6643,19.9999,NaN,NaN,NaN,NaN,""
295420,24.613,19.9999,NaN,NaN,NaN,NaN,""
295446,24.6519,19.9999,NaN,NaN,NaN,NaN,""
295483,24.6309,20,NaN,NaN,NaN,NaN,""
295507,24.6398,20,NaN,NaN,NaN,NaN,""
295539,24.6518,19.9995,NaN,NaN,NaN,NaN,""
295560,24.6576,19.9997,NaN,NaN,NaN,NaN,""
295580,24.6464,19.9999,NaN,NaN,NaN,NaN,""
295612,24.629,20.0001,NaN,NaN,NaN,NaN,""
295615,24.6273,20.0001,NaN,NaN,NaN,NaN,""
295632,24.6598,19.9997,NaN,NaN,NaN,NaN,""
295647,24.649,19.9997,NaN,NaN,NaN,NaN,""
295660,24.6387,20,NaN,NaN,NaN,NaN,""
295679,24.625,20.0002,NaN,NaN,NaN,NaN,""
295691,24.6257,20.0002,NaN,NaN,NaN,NaN,""
295737,24.6284,20,NaN,NaN,NaN,NaN,""
295761,24.6673,19.9999,NaN,NaN,NaN,NaN,""
295776,24.6291,19.9998,NaN,NaN,NaN,NaN,""
295791,24.5908,19.9997,NaN,NaN,NaN,NaN,""
295803,24.6462,19.9996,NaN,NaN,NaN,NaN,""
295832,24.649,19.9997,NaN,NaN,NaN,NaN,""
295844,24.6502,20,NaN,NaN,NaN,NaN,""
295876,24.6497,20,NaN,NaN,NaN,NaN,""
295930,24.6328,19.9999,NaN,NaN,NaN,NaN,""
295981,24.6582,19.9999,NaN,NaN,NaN,NaN,""
295999,24.8283,19.9999,NaN,NaN,NaN,NaN,""
296000,24.8228,19.9999,NaN,NaN,NaN,NaN,""
296026,24.7075,20,NaN,NaN,NaN,NaN,""
296067,24.6608,20.0001,NaN,NaN,NaN,NaN,""
296089,24.6053,19.9999,NaN,NaN,NaN,NaN,""
296104,24.6069,19.9998,NaN,NaN,NaN,NaN,""
296110,24.6495,19.9997,NaN,NaN,NaN,NaN,""
296117,24.6526,19.9997,NaN,NaN,NaN,NaN,""
296132,24.6213,19.9998,NaN,NaN,NaN,NaN,""
296183,24.6788,19.9998,NaN,NaN,NaN,NaN,""
296204,24.6529,19.9998,NaN,NaN,NaN,NaN,""
296210,24.6895,19.9999,NaN,NaN,NaN,NaN,""
296216,24.7262,19.9999,NaN,NaN,NaN,NaN,""
296226,24.6584,20,NaN,NaN,NaN,NaN,""
296257,24.6769,20.0003,NaN,NaN,NaN,NaN,""
296286,24.6891,19.9998,NaN,NaN,NaN,NaN,""
296308,24.6567,19.9995,NaN,NaN,NaN,NaN,""