Folder: CaloCem/TAInstCalorimetry/DATA (part 4)

File: myexp11.csv
Summary
,Component - OPC
Mass,4g
Name,"OPC"
ID,"Bernburg CEM I 42.5R 29.09.21"

"Time","Temperature [AmbientT(Therm3T)]","Temperature [Temperature]","Heat flow [Signal]","Heat [Signal]","Normalized heat flow [Signal]","Normalized heat [Signal]","Time markers"
-1932.35,24.5504,19.9995,1.70161e-06,NaN,4.25402e-07,NaN,""
-1914.77,24.5408,19.9999,1.72828e-06,NaN,4.3207e-07,NaN,""
-1904.26,24.5372,19.9999,1.74424e-06,NaN,4.36059e-07,NaN,""
-1886.75,24.533,19.9999,1.71792e-06,NaN,4.2948e-07,NaN,""
-1868.6,24.5465,20,1.65473e-06,NaN,4.13684e-07,NaN,""
-1855.53,24.5797,20,1.56561e-06,NaN,3.91402e-07,NaN,""
-1842.46,24.5748,20,1.36705e-06,NaN,3.41763e-07,NaN,""
-1833.49,24.5443,19.9999,1.23076e-06,NaN,3.07691e-07,NaN,""
-1814.3,24.5503,19.9999,9.53671e-07,NaN,2.38418e-07,NaN,""
-1792.12,24.5572,19.9998,6.65281e-07,NaN,1.6632e-07,NaN,""
-1769.94,24.5641,19.9999,4.12446e-07,NaN,1.03111e-07,NaN,""
-1741.77,24.5697,20.0001,1.98406e-07,NaN,4.96016e-08,NaN,""
-1713.6,24.5738,20.0001,-1.56332e-08,NaN,-3.90831e-09,NaN,""
-1678.38,24.579,20,6.52493e-08,NaN,1.63123e-08,NaN,""
-1677.59,24.5791,20,6.8366e-08,NaN,1.70915e-08,NaN,""
-1662.55,24.5676,20,-1.04765e-08,NaN,-2.61912e-09,NaN,""
-1646.56,24.5555,20.0003,-9.42831e-08,NaN,-2.35708e-08,NaN,""
-1637.02,24.5606,20.0003,-3.34635e-08,NaN,-8.36587e-09,NaN,""
-1625.85,24.5871,20.0002,3.77667e-08,NaN,9.44168e-09,NaN,""
-1598.6,24.5601,20.0001,2.11471e-07,NaN,5.28678e-08,NaN,""
-1582.88,24.5698,20,5.69379e-09,NaN,1.42345e-09,NaN,""
-1566.98,24.589,20,-2.02281e-07,NaN,-5.05704e-08,NaN,""
-1566.22,24.5899,20,-2.1221e-07,NaN,-5.30524e-08,NaN,""
-1557.57,24.5252,19.9999,-3.25471e-07,NaN,-8.13677e-08,NaN,""
-1539.76,24.5517,19.9999,-2.6052e-07,NaN,-6.51299e-08,NaN,""
-1526.71,24.5711,19.9999,-2.95959e-07,NaN,-7.39897e-08,NaN,""
-1518.61,24.5773,19.9999,-4.41959e-07,NaN,-1.1049e-07,NaN,""
-1510.5,24.5751,19.9999,-5.29842e-07,NaN,-1.3246e-07,NaN,""
-1497.18,24.5716,19.9999,-5.80835e-07,NaN,-1.45209e-07,NaN,""
-1472.86,24.5651,19.9998,-8.53325e-07,NaN,-2.13331e-07,NaN,""
-1458.24,24.5619,19.9999,-6.87972e-07,NaN,-1.71993e-07,NaN,""
-1442.86,24.5601,19.9999,-3.37837e-07,NaN,-8.44592e-08,NaN,""
-1413.66,24.5568,20.0001,-2.4576e-07,NaN,-6.14399e-08,NaN,""
-1376.15,24.5525,20.0002,-1.27457e-07,NaN,-3.18644e-08,NaN,""
-1356.52,24.5649,19.9999,8.54296e-08,NaN,2.13574e-08,NaN,""
-1342.73,24.5795,19.9997,2.34916e-07,NaN,5.8729e-08,NaN,""
-1319.25,24.5994,19.9996,4.80929e-07,NaN,1.20232e-07,NaN,""
-1285.92,24.5753,19.9996,3.48832e-07,NaN,8.7208e-08,NaN,""
-1280.13,24.6006,19.9997,3.25891e-07,NaN,8.14726e-08,NaN,""
-1274.35,24.6259,19.9998,3.02949e-07,NaN,7.57373e-08,NaN,""
-1258.45,24.5947,20,4.02868e-07,NaN,1.00717e-07,NaN,""
-1245.78,24.5699,20.0002,5.71342e-07,NaN,1.42836e-07,NaN,""
-1235.18,24.5652,20.0003,5.50469e-07,NaN,1.37617e-07,NaN,""
-1224.58,24.5676,20.0003,5.29596e-07,NaN,1.32399e-07,NaN,""
-1206.73,24.5717,20.0004,6.32603e-07,NaN,1.58151e-07,NaN,""
-1196.1,24.5741,20.0001,6.36587e-07,NaN,1.59147e-07,NaN,""
-1187.6,24.576,19.9999,5.41562e-07,NaN,1.35391e-07,NaN,""
-1179.21,24.5779,19.9999,6.23722e-07,NaN,1.55931e-07,NaN,""
-1170.81,24.5798,19.9999,7.05882e-07,NaN,1.7647e-07,NaN,""
-1153.41,24.5819,19.9999,5.25534e-07,NaN,1.31383e-07,NaN,""
-1136.02,24.5651,20,3.45185e-07,NaN,8.62964e-08,NaN,""
-1117.89,24.5498,20,1.90836e-07,NaN,4.77089e-08,NaN,""
-1092.04,24.5905,20,-2.9341e-08,NaN,-7.33525e-09,NaN,""
-1076.23,24.5859,20,-1.63903e-07,NaN,-4.09759e-08,NaN,""
-1074.17,24.5836,19.9999,-1.81438e-07,NaN,-4.53595e-08,NaN,""
-1056.33,24.5634,19.9999,1.79013e-07,NaN,4.47532e-08,NaN,""
-1033.93,24.5679,19.9998,2.61116e-08,NaN,6.5279e-09,NaN,""
-1026.22,24.5945,19.9997,-2.6544e-08,NaN,-6.636e-09,NaN,""
-1003.81,24.5933,19.9999,-1.15302e-07,NaN,-2.88256e-08,NaN,""
-975.263,24.5918,20,-7.27912e-08,NaN,-1.81978e-08,NaN,""
-952.609,24.5935,20.0002,-1.98802e-07,NaN,-4.97006e-08,NaN,""
-934.589,24.5948,20.0001,-3.83448e-07,NaN,-9.5862e-08,NaN,""
-916.568,24.5961,19.9999,-6.02732e-07,NaN,-1.50683e-07,NaN,""
-909.94,24.5966,19.9999,-6.87515e-07,NaN,-1.71879e-07,NaN,""
-906.299,24.6177,19.9998,-7.34083e-07,NaN,-1.83521e-07,NaN,""
-902.823,24.6341,19.9998,-7.21712e-07,NaN,-1.80428e-07,NaN,""
-900.003,24.5864,19.9998,-7.11676e-07,NaN,-1.77919e-07,NaN,""
-897.182,24.5419,19.9998,-7.0164e-07,NaN,-1.7541e-07,NaN,""
-882.507,24.5789,19.9999,-6.49418e-07,NaN,-1.62355e-07,NaN,""
-865.209,24.5791,20.0001,-5.87866e-07,NaN,-1.46966e-07,NaN,""
-853.059,24.5792,20.0001,-3.99495e-07,NaN,-9.98738e-08,NaN,""
-840.909,24.5531,20,-2.11124e-07,NaN,-5.27811e-08,NaN,""
-830.846,24.5172,19.9999,-1.22872e-07,NaN,-3.0718e-08,NaN,""
-820.889,24.5436,19.9998,-3.82206e-08,NaN,-9.55515e-09,NaN,""
-809.819,24.573,19.9997,-2.21978e-07,NaN,-5.54946e-08,NaN,""
-798.823,24.5731,19.9996,-4.00696e-07,NaN,-1.00174e-07,NaN,""
-781.176,24.5732,19.9997,-3.19672e-07,NaN,-7.99181e-08,NaN,""
-763.529,24.5827,19.9999,-2.40582e-07,NaN,-6.01454e-08,NaN,""
-745.135,24.6081,20,-3.5404e-07,NaN,-8.851e-08,NaN,""
-725.565,24.6352,20,-4.74748e-07,NaN,-1.18687e-07,NaN,""
-721.495,24.6089,20,-4.99854e-07,NaN,-1.24964e-07,NaN,""
-717.424,24.5825,19.9999,-5.24961e-07,NaN,-1.3124e-07,NaN,""
-704.704,24.5709,19.9997,-5.81271e-07,NaN,-1.45318e-07,NaN,""
-691.983,24.5593,19.9996,-3.98837e-07,NaN,-9.97092e-08,NaN,""
-673.691,24.555,19.9996,-1.36501e-07,NaN,-3.41252e-08,NaN,""
-650.766,24.574,19.9998,7.84255e-08,NaN,1.96064e-08,NaN,""
-628.753,24.5922,19.9999,1.20762e-07,NaN,3.01904e-08,NaN,""
-618.096,24.601,19.9999,-9.99454e-08,NaN,-2.49863e-08,NaN,""
-607.44,24.5893,19.9999,-3.20652e-07,NaN,-8.01631e-08,NaN,""
-590.753,24.5709,19.9999,-1.77405e-07,NaN,-4.43513e-08,NaN,""
-570.695,24.5548,19.9999,-3.49875e-07,NaN,-8.74688e-08,NaN,""
-550.638,24.5699,19.9999,-5.22345e-07,NaN,-1.30586e-07,NaN,""
-534.603,24.582,19.9999,-3.03159e-07,NaN,-7.57898e-08,NaN,""
-519.957,24.5931,19.9997,-1.25574e-07,NaN,-3.13934e-08,NaN,""
-500.417,24.6078,19.9995,-1.76544e-07,NaN,-4.4136e-08,NaN,""
-497.967,24.6096,19.9995,-9.88532e-08,NaN,-2.47133e-08,NaN,""
-487.846,24.5796,19.9994,2.22194e-07,NaN,5.55484e-08,NaN,""
-481.698,24.5614,19.9996,3.21163e-07,NaN,8.02908e-08,NaN,""
-475.549,24.5639,19.9998,3.77985e-07,NaN,9.44961e-08,NaN,""
-465.66,24.5718,19.9998,4.595e-07,NaN,1.14875e-07,NaN,""
-443.721,24.5894,19.9999,2.5497e-07,NaN,6.37424e-08,NaN,""
-427.756,24.6007,19.9997,1.37966e-07,NaN,3.44915e-08,NaN,""
-411.79,24.5745,19.9996,1.81875e-07,NaN,4.54688e-08,NaN,""
-401.267,24.5967,19.9997,-2.97631e-08,NaN,-7.44078e-09,NaN,""
-396.314,24.6496,19.9998,-6.47938e-08,NaN,-1.61984e-08,NaN,""
-390.673,24.675,19.9999,-3.89281e-08,NaN,-9.73203e-09,NaN,""
-382.351,24.6488,20,-1.07027e-08,NaN,-2.67568e-09,NaN,""
-373.298,24.6202,20,-1.71426e-07,NaN,-4.28564e-08,NaN,""
-364.245,24.6007,19.9999,-3.19077e-07,NaN,-7.97694e-08,NaN,""
-345.971,24.6271,19.9998,-1.06526e-07,NaN,-2.66316e-08,NaN,""
-336.549,24.6333,19.9998,-2.20469e-07,NaN,-5.51174e-08,NaN,""
-318.784,24.5973,19.9999,-4.40984e-07,NaN,-1.10246e-07,NaN,""
-313.147,24.5976,19.9998,-5.1095e-07,NaN,-1.27737e-07,NaN,""
-307.51,24.5992,19.9997,-6.27418e-07,NaN,-1.56855e-07,NaN,""
-288.409,24.6048,19.9997,-1.14948e-06,NaN,-2.8737e-07,NaN,""
-263.354,24.6121,19.9998,-1.11757e-06,NaN,-2.79392e-07,NaN,""
-241.796,24.6185,20,-9.1532e-07,NaN,-2.2883e-07,NaN,""
-220.238,24.6199,20.0002,-7.13073e-07,NaN,-1.78268e-07,NaN,""
[...]
161937,24.3891,20,0.000455519,188.246,0.00011388,47.0615,""
164062,24.4045,20,0.000462599,189.221,0.00011565,47.3053,""
166110,24.5921,19.9999,0.000469699,190.176,0.000117425,47.544,""
168156,24.4202,20,0.000477595,191.146,0.000119399,47.7864,""
169930,24.4614,19.9998,0.000484546,191.999,0.000121137,47.9997,""
172319,24.5016,19.9997,0.000494743,193.168,0.000123686,48.2921,""
174364,24.4688,19.9996,0.000503975,194.189,0.000125994,48.5472,""
176435,24.5154,19.9999,0.000513763,195.243,0.000128441,48.8107,""
178636,24.54,19.9997,0.000524915,196.386,0.000131229,49.0964,""
180722,24.5577,19.9993,0.000535857,197.492,0.000133964,49.3729,""
182853,24.5277,19.9997,0.000549273,198.648,0.000137318,49.662,""
184792,24.5465,19.9998,0.00056146,199.725,0.000140365,49.9312,""
186820,24.5878,20.0001,0.000575395,200.877,0.000143849,50.2192,""
188521,24.6138,19.9998,0.000587851,201.867,0.000146963,50.4666,""
190701,24.5924,19.9996,0.000605399,203.167,0.00015135,50.7917,""
192681,24.6115,20.0001,0.000622524,204.382,0.000155631,51.0955,""
194524,24.6334,19.9994,0.000639018,205.545,0.000159755,51.3862,""
196291,24.6138,19.9998,0.000656823,206.689,0.000164206,51.6723,""
198262,24.5853,20,0.000677547,208.004,0.000169387,52.001,""
200301,24.5478,19.9998,0.00070054,209.408,0.000175135,52.3521,""
202254,24.5145,19.9999,0.000724477,210.8,0.000181119,52.7001,""
204059,24.5493,19.9993,0.000748769,212.129,0.000187192,53.0323,""
206134,24.5022,19.9999,0.000778546,213.714,0.000194636,53.4285,""
208247,24.5393,19.9996,0.000811411,215.393,0.000202853,53.8482,""
210295,24.506,19.9997,0.000846365,217.09,0.000211591,54.2726,""
211899,24.466,19.9999,0.000875469,218.471,0.000218867,54.6177,""
213705,24.4207,19.9995,0.000910902,220.084,0.000227725,55.021,""
215709,24.4861,20,0.000953047,221.95,0.000238262,55.4875,""
218003,24.4894,19.9996,0.00100483,224.195,0.000251208,56.0488,""
219855,24.4261,19.9999,0.00105096,226.099,0.00026274,56.5247,""
221726,24.415,20.0001,0.00109983,228.11,0.000274957,57.0275,""
223521,24.4483,19.9996,0.00114985,230.128,0.000287464,57.532,""
225365,24.44,19.9997,0.00120418,232.298,0.000301045,58.0745,""
227323,24.4093,20,0.00126563,234.716,0.000316407,58.679,""
229518,24.3938,20.0004,0.00133971,237.574,0.000334927,59.3934,""
231345,24.3385,19.9998,0.00140435,240.079,0.000351089,60.0199,""
233200,24.3625,19.9996,0.00147435,242.749,0.000368587,60.6873,""
235077,24.3818,19.9996,0.00154839,245.587,0.000387098,61.3966,""
237065,24.3727,20.0001,0.00163037,248.745,0.000407591,62.1862,""
239214,24.3653,20.0001,0.0017243,252.349,0.000431075,63.0872,""
241062,24.3591,19.9998,0.00180831,255.612,0.000452077,63.9031,""
243020,24.354,20,0.00190115,259.244,0.000475288,64.811,""
244905,24.2992,19.9999,0.00199381,262.915,0.000498453,65.7287,""
246764,24.3979,20.0001,0.00208826,266.709,0.000522064,66.6771,""
248783,24.4486,20,0.00219312,271.03,0.000548281,67.7574,""
250699,24.4839,20.0002,0.00229588,275.33,0.000573969,68.8325,""
252642,24.5211,19.9996,0.00240226,279.893,0.000600565,69.9732,""
254509,24.5288,20,0.00250615,284.474,0.000626538,71.1184,""
256446,24.545,19.9998,0.00261525,289.435,0.000653812,72.3587,""
258345,24.6192,20.0001,0.00272441,294.503,0.000681103,73.6257,""
260258,24.5868,19.9993,0.00283559,299.823,0.000708898,74.9556,""
262192,24.6794,19.9997,0.00294933,305.417,0.000737332,76.3541,""
264324,24.7188,20,0.00307843,311.843,0.000769608,77.9607,""
266161,24.7326,20,0.00319338,317.602,0.000798346,79.4006,""
268117,24.8232,20.0001,0.0033217,323.971,0.000830425,80.9928,""
268951,24.9797,20,0.00337716,326.765,0.00084429,81.6912,""
268951,24.9798,20,NaN,NaN,NaN,NaN,"Ampoule removed"
268953,24.98,20,NaN,NaN,NaN,NaN,""

File: opc_3.csv
General Experiment Info
Bath temperature,20Â°C
,Sample - 213:2
Total mass,5.88g
Name,"Max"
,Component - OPC
Mass,4g
Name,"OPC"
ID,"42.5R CEM I"
Wizard Settings
Devices

"Time","Temperature","Heat flow","Heat","Normalized heat flow","Normalized heat","Time markers"
-7515.69,20,NaN,NaN,NaN,NaN,""
-7515.39,20,-3.13431e-06,NaN,-7.83577e-07,NaN,""
-7507.84,20,-3.32811e-06,NaN,-8.32027e-07,NaN,""
-7488.8,20,-2.44279e-06,NaN,-6.10699e-07,NaN,""
-7450.4,20,-2.63208e-06,NaN,-6.58021e-07,NaN,""
-7429.26,20,-1.87002e-06,NaN,-4.67504e-07,NaN,""
-7419.89,20,-1.12484e-06,NaN,-2.81211e-07,NaN,""
-7388.34,20,-7.32921e-07,NaN,-1.8323e-07,NaN,""
-7353.81,20,-1.09996e-06,NaN,-2.74989e-07,NaN,""
-7318.54,20,-5.65764e-07,NaN,-1.41441e-07,NaN,""
-7301.39,20,-1.44298e-06,NaN,-3.60744e-07,NaN,""
-7263.51,20,-1.16901e-06,NaN,-2.92252e-07,NaN,""
-7225.21,20,-3.09076e-06,NaN,-7.72689e-07,NaN,""
-7185.08,20,-2.77934e-06,NaN,-6.94835e-07,NaN,""
-7137.58,20,-7.47373e-07,NaN,-1.86843e-07,NaN,""
-7108.05,20,-4.78853e-07,NaN,-1.19713e-07,NaN,""
-7094.87,20,-1.20773e-06,NaN,-3.01933e-07,NaN,""
-7084,20,-9.00561e-07,NaN,-2.2514e-07,NaN,""
-7066.75,20,-1.10501e-06,NaN,-2.76253e-07,NaN,""
-7041.07,20,1.0338e-09,NaN,2.58451e-10,NaN,""
-7011.43,20,8.47424e-07,NaN,2.11856e-07,NaN,""
-6982.43,20,2.98003e-07,NaN,7.45009e-08,NaN,""
-6942.36,20,-1.7604e-07,NaN,-4.401e-08,NaN,""
-6912.34,20,3.55012e-07,NaN,8.8753e-08,NaN,""
-6891.41,20,-1.25753e-06,NaN,-3.14381e-07,NaN,""
-6863.81,20,-2.77485e-07,NaN,-6.93713e-08,NaN,""
-6822.79,20,5.46641e-07,NaN,1.3666e-07,NaN,""
-6804.23,20,2.42513e-07,NaN,6.06282e-08,NaN,""
-6781.76,20,7.18261e-07,NaN,1.79565e-07,NaN,""
-6735.85,20,3.58726e-07,NaN,8.96815e-08,NaN,""
-6703.64,20,-6.64995e-07,NaN,-1.66249e-07,NaN,""
-6552.89,20,-2.02538e-06,NaN,-5.06345e-07,NaN,""
-6506.16,20,-1.67376e-06,NaN,-4.18439e-07,NaN,""
-6486.05,20,-8.63226e-07,NaN,-2.15807e-07,NaN,""
-6477.07,20,-1.12359e-06,NaN,-2.80896e-07,NaN,""
-6465.3,20,-6.46252e-07,NaN,-1.61563e-07,NaN,""
-6441.5,20,-9.26266e-07,NaN,-2.31567e-07,NaN,""
-6412.75,20,4.25297e-07,NaN,1.06324e-07,NaN,""
-6375.25,20,7.83727e-07,NaN,1.95932e-07,NaN,""
-6343.36,20,1.08955e-06,NaN,2.72386e-07,NaN,""
-6335.32,20,1.75028e-06,NaN,4.37569e-07,NaN,""
-6307.46,20,1.53312e-06,NaN,3.83281e-07,NaN,""
-6280.25,20,2.05061e-06,NaN,5.12653e-07,NaN,""
-6240.04,20,1.22451e-06,NaN,3.06128e-07,NaN,""
-6215.85,20,1.59172e-06,NaN,3.97929e-07,NaN,""
-6196.9,20,9.92738e-07,NaN,2.48184e-07,NaN,""
-6161.77,20,2.0076e-06,NaN,5.01901e-07,NaN,""
-6126.56,20,4.56989e-07,NaN,1.14247e-07,NaN,""
-6094.5,20,8.11104e-07,NaN,2.02776e-07,NaN,""
-6075.07,20,-1.41942e-07,NaN,-3.54856e-08,NaN,""
-6036.59,20,2.24232e-06,NaN,5.6058e-07,NaN,""
-5999.41,20,2.71907e-06,NaN,6.79768e-07,NaN,""
-5975.91,20,1.60258e-06,NaN,4.00644e-07,NaN,""
-5932.39,20,1.51592e-06,NaN,3.7898e-07,NaN,""
-5886.05,20,2.79542e-06,NaN,6.98854e-07,NaN,""
-5844.4,20,2.40546e-06,NaN,6.01364e-07,NaN,""
-5787.08,20,1.93966e-06,NaN,4.84916e-07,NaN,""
-5771.73,20,1.02949e-06,NaN,2.57373e-07,NaN,""
-5748.39,20,1.16236e-06,NaN,2.90589e-07,NaN,""
-5724.73,20,4.97839e-07,NaN,1.2446e-07,NaN,""
-5715.39,20,6.64347e-07,NaN,1.66087e-07,NaN,""
0,20,NaN,NaN,NaN,NaN,"Reaction start"
0.028142,20,NaN,NaN,NaN,NaN,"Measuring position"
1.08804,20,NaN,NaN,NaN,NaN,"Signal correct"
1.61315,20,0.104828,0.0539811,0.0262069,0.0134953,""
53.6131,20,0.37015,13.886,0.0925376,3.4715,""
110.488,20,0.381514,35.9649,0.0953785,8.99123,""
198.051,20,0.28948,65.4623,0.07237,16.3656,""
291.113,20,0.205556,88.2765,0.0513891,22.0691,""
381.488,20,0.148209,104.108,0.0370522,26.0269,""
479.113,20,0.105157,116.344,0.0262893,29.0861,""
592.113,20,0.0717046,126.204,0.0179262,31.551,""
730.035,20,0.0460059,134.174,0.0115015,33.5434,""
921.808,20,0.0260809,140.871,0.00652023,35.2179,""
1172.65,20,0.0138214,145.661,0.00345534,36.4153,""
1521.04,20,0.00723842,149.128,0.00180961,37.282,""
2040.37,20,0.00422976,151.94,0.00105744,37.985,""
3115.83,20,0.00279365,155.517,0.000698413,38.8794,""
4751.11,20,0.00202678,159.36,0.000506694,39.8401,""
6382.45,20,0.00168109,162.353,0.000420274,40.5882,""
7838.68,20,0.00152475,164.679,0.000381187,41.1698,""
9465.44,20,0.00161491,167.188,0.000403727,41.797,""
11605.9,20,0.00179763,170.848,0.000449406,42.712,""
13396.3,20,0.00196016,174.206,0.000490039,43.5516,""
15469.4,20,0.00219927,178.507,0.000549817,44.6267,""
17796.8,20,0.00253983,184.007,0.000634958,46.0017,""
19323.7,20,0.00280269,188.081,0.000700672,47.0203,""
20710.6,20,0.00306707,192.148,0.000766768,48.0371,""
22734.8,20,0.00349418,198.78,0.000873544,49.695,""
23993,20,0.00378348,203.356,0.000945871,50.839,""
24997.5,20,0.00402421,207.276,0.00100605,51.8191,""
26251,20,0.00433786,212.517,0.00108446,53.1292,""
27704.7,20,0.00470587,219.09,0.00117647,54.7724,""
29763.6,20,0.00522959,229.318,0.0013074,57.3294,""
31325.2,20,0.00562199,237.792,0.0014055,59.448,""
32946.2,20,0.00601287,247.225,0.00150322,61.8062,""
35068.2,20,0.00648616,260.493,0.00162154,65.1232,""
36544,20,0.00678456,270.288,0.00169614,67.5721,""
37731.8,20,0.00700368,278.479,0.00175092,69.6199,""
39592.6,20,0.00730203,291.799,0.00182551,72.9498,""
41352.2,20,0.00753205,304.858,0.00188301,76.2146,""
43882.4,20,0.00777349,324.244,0.00194337,81.061,""
45929.7,20,0.007897,340.295,0.00197425,85.0738,""
47462.3,20,0.00795168,352.443,0.00198792,88.1108,""
49161.8,20,0.00797837,365.984,0.00199459,91.4959,""
50271.2,20,0.00798517,374.839,0.00199629,93.7098,""
52403.4,20,0.00803386,391.9,0.00200846,97.9749,""
53803.2,20,0.00813278,403.211,0.0020332,100.803,""
55815,20,0.00821253,419.671,0.00205313,104.918,""
57339.5,20,0.00820519,432.193,0.0020513,108.048,""
58900.5,20,0.00814994,444.962,0.00203749,111.241,""
61263.7,20,0.00801632,464.074,0.00200408,116.018,""
63000.5,20,0.00789011,477.889,0.00197253,119.472,""
64396.2,20,0.00777769,488.824,0.00194442,122.206,""
66014.9,20,0.00763905,501.302,0.00190976,125.326,""
67835.4,20,0.00747853,515.064,0.00186963,128.766,""
69572.6,20,0.00732041,527.919,0.0018301,131.98,""
71207.4,20,0.00716539,539.761,0.00179135,134.94,""
73031.3,20,0.00699284,552.673,0.00174821,138.168,""
74676.6,20,0.00683555,564.049,0.00170889,141.012,""
76164.1,20,0.00669261,574.111,0.00167315,143.528,""
78038.3,20,0.00651132,586.485,0.00162783,146.621,""
79782.6,20,0.00633974,597.694,0.00158494,149.424,""
81274.4,20,0.00619308,607.042,0.00154827,151.76,""
83059.8,20,0.0060185,617.943,0.00150463,154.486,""
84718.3,20,0.00586051,627.793,0.00146513,156.948,""
86146.7,20,0.00572575,636.068,0.00143144,159.017,""
88193.5,20,0.00553464,647.592,0.00138366,161.898,""
89988.6,20,0.00537381,657.383,0.00134345,164.346,""
91585.1,20,0.00523598,665.851,0.001309,166.463,""
93020.3,20,0.00511218,673.276,0.00127804,168.319,""
94846.2,20,0.0049621,682.472,0.00124053,170.618,""
96350.3,20,0.00484489,689.847,0.00121122,172.462,""
97798.2,20,0.0047369,696.782,0.00118422,174.196,""
99554.2,20,0.00461288,704.991,0.00115322,176.248,""
101121,20,0.00450554,712.134,0.00112639,178.034,""
102543,20,0.00441267,718.475,0.00110317,179.619,""
104254,20,0.00430715,725.932,0.00107679,181.483,""
105792,20,0.00421442,732.484,0.0010536,183.121,""
107347,20,0.00412455,738.969,0.00103114,184.742,""
108614,20,0.0040537,744.149,0.00101342,186.037,""
109781,20,0.00399283,748.846,0.000998207,187.212,""
110958,20,0.0039318,753.508,0.000982949,188.377,""
[...]
198390,20,0.00163498,973.898,0.000408745,243.474,""
200666,20,0.00160911,977.592,0.000402276,244.398,""
202809,20,0.00158608,981.016,0.000396521,245.254,""
204873,20,0.00156498,984.269,0.000391244,246.067,""
206598,20,0.00154985,986.956,0.000387463,246.739,""
208408,20,0.00153322,989.745,0.000383304,247.436,""
210427,20,0.00151573,992.821,0.000378933,248.205,""
212641,20,0.0014961,996.155,0.000374025,249.039,""
214262,20,0.00148205,998.568,0.000370512,249.642,""
216413,20,0.00146474,1001.74,0.000366185,250.435,""
218012,20,0.00145007,1004.07,0.000362518,251.017,""
220120,20,0.00143439,1007.11,0.000358598,251.778,""
221999,20,0.00141853,1009.79,0.000354632,252.447,""
223861,20,0.00140506,1012.42,0.000351266,253.105,""
226106,20,0.00139195,1015.56,0.000347988,253.889,""
228883,20,0.00137131,1019.39,0.000342826,254.848,""
230666,20,0.00135865,1021.82,0.000339664,255.456,""
232322,20,0.00134737,1024.06,0.000336843,256.016,""
234098,20,0.00133532,1026.45,0.00033383,256.612,""
236030,20,0.00132471,1029.02,0.000331177,257.254,""
238077,20,0.00131328,1031.72,0.00032832,257.93,""
240060,20,0.00130379,1034.31,0.000325947,258.579,""
241755,20,0.00129321,1036.52,0.000323301,259.129,""
243916,20,0.0012773,1039.3,0.000319325,259.824,""
245693,20,0.00126644,1041.56,0.000316609,260.389,""
247449,20,0.00125642,1043.77,0.000314104,260.943,""
249660,20,0.0012408,1046.54,0.000310201,261.634,""
251411,20,0.00122939,1048.7,0.000307347,262.175,""
253294,20,0.00121873,1051.01,0.000304682,262.752,""
254770,20,0.00120901,1052.8,0.000302252,263.199,""
257145,20,0.00119765,1055.66,0.000299413,263.914,""
258801,20,0.0011886,1057.63,0.000297149,264.408,""
260716,20,0.00117687,1059.9,0.000294217,264.975,""
263084,20,0.00116666,1062.68,0.000291665,265.669,""
265223,20,0.00115631,1065.16,0.000289076,266.291,""
267513,20,0.00114642,1067.8,0.000286606,266.95,""
269100,20,0.0011358,1069.61,0.00028395,267.403,""
271371,20,0.0011278,1072.18,0.000281949,268.046,""
273189,20,0.0011187,1074.22,0.000279674,268.556,""
275390,20,0.00110757,1076.67,0.000276892,269.168,""
277504,20,0.001097,1079,0.000274251,269.751,""
279693,20,0.00108639,1081.39,0.000271598,270.348,""
281897,20,0.00107863,1083.78,0.000269657,270.945,""
283533,20,0.00107271,1085.54,0.000268178,271.385,""
285607,20,0.00106341,1087.75,0.000265852,271.938,""
288298,20,0.00105308,1090.6,0.000263271,272.65,""
290584,20,0.00104414,1092.99,0.000261035,273.248,""
292471,20,0.00103682,1094.96,0.000259205,273.739,""
294644,20,0.0010287,1097.2,0.000257175,274.3,""
296596,20,0.00102107,1099.2,0.000255266,274.801,""
298821,20,0.0010114,1101.47,0.000252851,275.367,""
300921,20,0.00100462,1103.58,0.000251155,275.896,""
302987,20,0.0009982,1105.65,0.00024955,276.413,""
304804,20,0.000991371,1107.46,0.000247843,276.865,""
307369,20,0.000983216,1109.99,0.000245804,277.498,""
309067,20,0.000979361,1111.66,0.00024484,277.914,""
311144,20,0.000970433,1113.68,0.000242608,278.42,""
313039,20,0.000965035,1115.51,0.000241259,278.878,""
314771,20,0.000956389,1117.18,0.000239097,279.295,""
317356,20,0.000949467,1119.64,0.000237367,279.911,""
319224,20,0.000943583,1121.41,0.000235896,280.353,""
321028,20,0.000939312,1123.11,0.000234828,280.778,""
322424,20,0.0009358,1124.42,0.00023395,281.105,""
322454,20,0.000935772,1124.45,0.000233943,281.112,""
322462,20,0.00093578,1124.46,0.000233945,281.114,""
322462,20,NaN,NaN,NaN,NaN,""
322463,20,NaN,NaN,NaN,NaN,""
322464,20,NaN,NaN,NaN,NaN,""
322465,20,NaN,NaN,NaN,NaN,""
322466,20,NaN,NaN,NaN,NaN,""
322467,20,NaN,NaN,NaN,NaN,""
322468,20,NaN,NaN,NaN,NaN,""
322469,20,NaN,NaN,NaN,NaN,""
322469,20,NaN,NaN,NaN,NaN,"Ampoule removed"
322470,20,NaN,NaN,NaN,NaN,""