Folder: CaloCem/TAInstCalorimetry/DATA

File: calorimetry_data_1.csv
"Time","Temperature","Heat flow","Heat","Normalized heat flow","Normalized heat","Time markers"
-1874.12,20,NaN,NaN,NaN,NaN,""
-1872.26,20,-4.41834e-06,NaN,-1.02776e-06,NaN,""
-1851.59,20,-4.02016e-06,NaN,-9.35138e-07,NaN,""
-1835.82,20,-3.50126e-06,NaN,-8.14435e-07,NaN,""
-1825.28,20,-3.90806e-06,NaN,-9.09061e-07,NaN,""
-1805.17,20,-3.55715e-06,NaN,-8.27436e-07,NaN,""
-1768.38,20,-4.14532e-06,NaN,-9.64251e-07,NaN,""
-1719.97,20,-3.36823e-06,NaN,-7.83492e-07,NaN,""
-1698.42,20,-3.53452e-06,NaN,-8.22172e-07,NaN,""
-1673.31,20,-3.05748e-06,NaN,-7.11208e-07,NaN,""
-1650.9,20,-3.2421e-06,NaN,-7.54151e-07,NaN,""
-1607.04,20,-2.47151e-06,NaN,-5.74902e-07,NaN,""
-1580.54,20,-2.45039e-06,NaN,-5.69991e-07,NaN,""
-1559.46,20,-1.74435e-06,NaN,-4.05758e-07,NaN,""
-1544.61,20,-2.21994e-06,NaN,-5.16384e-07,NaN,""
-1393.04,20,-1.19157e-06,NaN,-2.77174e-07,NaN,""
-1294.54,20,-1.15943e-06,NaN,-2.69697e-07,NaN,""
-1278.64,20,-6.9201e-07,NaN,-1.6097e-07,NaN,""
-1245.32,20,-9.01383e-07,NaN,-2.09673e-07,NaN,""
-1208.54,20,-2.87427e-07,NaN,-6.68591e-08,NaN,""
-1187.29,20,-4.86876e-07,NaN,-1.13253e-07,NaN,""
-1164.64,20,-5.28533e-08,NaN,-1.22943e-08,NaN,""
-1141.76,20,-1.51311e-07,NaN,-3.51968e-08,NaN,""
-1130.69,20,9.40399e-08,NaN,2.18748e-08,NaN,""
-1087,20,-4.35197e-07,NaN,-1.01232e-07,NaN,""
-1045.31,20,3.01952e-07,NaN,7.02377e-08,NaN,""
-1025.92,20,2.20471e-07,NaN,5.12843e-08,NaN,""
-998.217,20,5.07116e-07,NaN,1.17961e-07,NaN,""
-983.463,20,1.29066e-06,NaN,3.00224e-07,NaN,""
-966.576,20,1.18825e-06,NaN,2.76402e-07,NaN,""
-945.252,20,1.40706e-06,NaN,3.273e-07,NaN,""
-903.353,20,1.13803e-06,NaN,2.64719e-07,NaN,""
-850.094,20,7.75532e-07,NaN,1.80398e-07,NaN,""
-812.334,20,1.13645e-06,NaN,2.64351e-07,NaN,""
-793.562,20,9.82609e-07,NaN,2.28567e-07,NaN,""
-766.756,20,1.63259e-06,NaN,3.7976e-07,NaN,""
-730.764,20,2.26292e-06,NaN,5.26384e-07,NaN,""
-717.6,20,1.87671e-06,NaN,4.36547e-07,NaN,""
-692.658,20,2.15275e-06,NaN,5.00755e-07,NaN,""
-668.115,20,1.61542e-06,NaN,3.75767e-07,NaN,""
-656.154,20,1.9087e-06,NaN,4.43987e-07,NaN,""
-641.6,20,1.38624e-06,NaN,3.22456e-07,NaN,""
-617.076,20,1.70042e-06,NaN,3.95539e-07,NaN,""
-578.699,20,1.76842e-06,NaN,4.11356e-07,NaN,""
-562.264,20,2.23992e-06,NaN,5.21032e-07,NaN,""
-527.625,20,1.9805e-06,NaN,4.60688e-07,NaN,""
-467.369,20,1.65176e-06,NaN,3.84221e-07,NaN,""
-446.517,20,1.89136e-06,NaN,4.39954e-07,NaN,""
-416.5,20,1.81449e-06,NaN,4.22073e-07,NaN,""
-388.904,20,2.2784e-06,NaN,5.29983e-07,NaN,""
-376.264,20,1.76032e-06,NaN,4.09472e-07,NaN,""
-337.864,20,2.12202e-06,NaN,4.93607e-07,NaN,""
-311.502,20,1.64327e-06,NaN,3.82245e-07,NaN,""
-260.557,20,1.70621e-06,NaN,3.96885e-07,NaN,""
-237.693,20,1.39285e-06,NaN,3.23995e-07,NaN,""
-214.302,20,1.82609e-06,NaN,4.24771e-07,NaN,""
-183.85,20,1.38047e-06,NaN,3.21114e-07,NaN,""
-128.745,20,2.23659e-06,NaN,5.20258e-07,NaN,""
-96.3329,20,1.66606e-06,NaN,3.87546e-07,NaN,""
-74.2636,20,1.9773e-06,NaN,4.59944e-07,NaN,""
2547.95,20,NaN,NaN,NaN,NaN,"Reaction start. Measuring position. Signal correct"
2548.74,20,0.000133963,0.00010506,3.11615e-05,2.44382e-05,""
2847.74,20,0.160513,2.69188,0.0373373,0.626165,""
2899.49,20,0.296997,15.3775,0.0690852,3.57699,""
2955.86,20,0.299708,32.5725,0.0697157,7.57677,""
3080.61,20,0.211683,64.6139,0.04924,15.03,""
3200.31,20,0.14258,85.5604,0.0331658,19.9024,""
3341.74,20,0.0895617,101.673,0.0208332,23.6503,""
3499.24,20,0.0542855,112.749,0.0126275,26.2269,""
3703.64,20,0.0295729,121.027,0.00687901,28.1523,""
3962.78,20,0.0151612,126.556,0.00352669,29.4386,""
4322.76,20,0.00768822,130.42,0.00178837,30.3372,""
4940.15,20,0.00431101,133.862,0.00100279,31.1379,""
6481.82,20,0.0026876,138.95,0.00062517,32.3214,""
8048.07,20,0.00209219,142.637,0.000486668,33.1791,""
9731.53,20,0.00175716,145.844,0.000408736,33.925,""
11625.1,20,0.00159806,149.007,0.000371727,34.6608,""
13091.2,20,0.00158182,151.31,0.00036795,35.1966,""
15092.1,20,0.00189485,154.81,0.000440766,36.0107,""
17315,20,0.00216449,159.31,0.000503486,37.0576,""
19972.6,20,0.00260211,165.613,0.000605283,38.5237,""
22049.3,20,0.00304078,171.458,0.000707322,39.8832,""
24114.2,20,0.00355879,178.258,0.000827819,41.4649,""
26225.2,20,0.00416747,186.399,0.000969403,43.3586,""
28235.6,20,0.00481137,195.418,0.00111918,45.4566,""
30493.8,20,0.00557099,207.134,0.00129588,48.182,""
32829.7,20,0.00637812,221.091,0.00148363,51.4284,""
34686.7,20,0.0070131,233.528,0.00163133,54.3215,""
37589.9,20,0.00794235,255.262,0.00184749,59.3771,""
39530.8,20,0.00849306,271.224,0.00197559,63.09,""
41299.9,20,0.00892704,286.644,0.00207654,66.6769,""
43153.5,20,0.00930029,303.55,0.00216336,70.6096,""
45689.6,20,0.00966088,327.631,0.00224724,76.2109,""
47495.9,20,0.00981245,345.232,0.0022825,80.3051,""
49976.4,20,0.00992249,369.718,0.00230809,86.0009,""
52234.8,20,0.0101666,392.343,0.00236488,91.2639,""
54384.6,20,0.0104577,414.543,0.0024326,96.4277,""
56192.7,20,0.0105171,433.538,0.00244642,100.846,""
57877.8,20,0.010404,451.185,0.0024201,104.951,""
60045.6,20,0.0100909,473.424,0.00234727,110.124,""
61913.7,20,0.00975314,491.963,0.0022687,114.437,""
64684.7,20,0.00923382,518.268,0.0021479,120.555,""
66787.7,20,0.00886234,537.29,0.00206149,124.98,""
69126.6,20,0.00849388,557.577,0.00197578,129.699,""
71362,20,0.00819878,576.223,0.00190714,134.036,""
73720.7,20,0.0079568,595.26,0.00185085,138.465,""
77239.6,20,0.00774289,622.828,0.00180109,144.877,""
80331,20,0.00769366,646.656,0.00178964,150.42,""
83155.9,20,0.00774275,668.44,0.00180106,155.487,""
85526.4,20,0.00784575,686.907,0.00182502,159.783,""
88241,20,0.00801304,708.422,0.00186393,164.788,""
90222.6,20,0.00813409,724.423,0.00189209,168.51,""
92787.7,20,0.0082049,745.411,0.00190856,173.392,""
94732.9,20,0.00812708,761.318,0.00189046,177.092,""
97432.7,20,0.00777164,782.842,0.00180778,182.099,""
99423.6,20,0.00735968,797.92,0.00171195,185.606,""
101687,20,0.00681883,813.973,0.00158614,189.34,""
103697,20,0.00634084,827.191,0.00147496,192.415,""
106444,20,0.0057526,843.78,0.00133813,196.274,""
109044,20,0.00528795,858.115,0.00123004,199.608,""
111186,20,0.00496477,869.086,0.00115487,202.16,""
113275,20,0.0046937,879.167,0.00109181,204.505,""
115492,20,0.0044435,889.289,0.00103361,206.859,""
117196,20,0.00427039,896.713,0.000993345,208.586,""
119068,20,0.00409883,904.543,0.000953439,210.408,""
120689,20,0.00396313,911.074,0.000921872,211.927,""
122457,20,0.00382745,917.958,0.000890311,213.528,""
124529,20,0.00368323,925.737,0.000856765,215.338,""
127290,20,0.00351117,935.665,0.000816742,217.647,""
129401,20,0.00339259,942.95,0.000789157,219.342,""
131499,20,0.00328523,949.957,0.000764185,220.972,""
133546,20,0.00318777,956.58,0.000741514,222.512,""
135276,20,0.00311078,962.026,0.000723606,223.779,""
137675,20,0.00301245,969.368,0.000700732,225.487,""
140960,20,0.00288807,979.058,0.000671801,227.741,""
143294,20,0.00280762,985.704,0.000653086,229.287,""
145098,20,0.00274966,990.719,0.000639604,230.453,""
147514,20,0.00267603,997.272,0.000622477,231.978,""
149519,20,0.00261844,1002.58,0.00060908,233.212,""
151448,20,0.00256502,1007.58,0.000596654,234.375,""
153582,20,0.00250957,1012.99,0.000583756,235.634,""
155744,20,0.00245569,1018.36,0.000571223,236.883,""
158325,20,0.00239264,1024.61,0.000556557,238.338,""
160486,20,0.00234438,1029.73,0.000545332,239.529,""
162359,20,0.00230333,1034.09,0.000535783,240.541,""
[...]
263478,20,0.00123262,1200.58,0.000286722,279.27,""
266371,20,0.00121545,1204.12,0.000282728,280.094,""
269588,20,0.00119846,1208.01,0.000278777,280.998,""
272293,20,0.00118513,1211.23,0.000275676,281.747,""
275463,20,0.00116914,1214.96,0.000271956,282.615,""
277746,20,0.00115746,1217.62,0.000269241,283.232,""
280292,20,0.00114488,1220.55,0.000266313,283.914,""
282720,20,0.00113324,1223.31,0.000263606,284.557,""
285309,20,0.00112015,1226.23,0.000260561,285.236,""
288073,20,0.00110743,1229.31,0.000257602,285.952,""
290440,20,0.00109639,1231.92,0.000255033,286.559,""
292887,20,0.00108486,1234.59,0.000252352,287.18,""
295553,20,0.00107248,1237.46,0.000249473,287.848,""
298316,20,0.00106109,1240.41,0.000246823,288.534,""
301346,20,0.00104646,1243.6,0.00024342,289.277,""
303492,20,0.0010365,1245.84,0.000241101,289.797,""
306647,20,0.00102287,1249.09,0.000237932,290.552,""
309488,20,0.00101161,1251.97,0.000235314,291.225,""
311673,20,0.00100206,1254.17,0.000233092,291.736,""
313592,20,0.000993899,1256.09,0.000231193,292.182,""
315602,20,0.000985229,1258.08,0.000229176,292.644,""
318417,20,0.000973865,1260.84,0.000226533,293.286,""
321909,20,0.000959811,1264.21,0.000223264,294.071,""
324396,20,0.000949463,1266.59,0.000220857,294.624,""
327080,20,0.000939281,1269.12,0.000218488,295.213,""
330060,20,0.000927404,1271.9,0.000215725,295.86,""
333124,20,0.000915087,1274.72,0.00021286,296.516,""
335257,20,0.000906875,1276.67,0.00021095,296.968,""
337906,20,0.000895838,1279.05,0.000208383,297.524,""
340609,20,0.000885677,1281.46,0.000206019,298.084,""
343254,20,0.000874785,1283.79,0.000203486,298.625,""
345779,20,0.000865048,1285.99,0.000201221,299.136,""
348744,20,0.000855709,1288.54,0.000199048,299.729,""
351428,20,0.000846171,1290.82,0.00019683,300.26,""
353110,20,0.000840483,1292.24,0.000195507,300.59,""
356210,20,0.00082896,1294.82,0.000192826,301.192,""
359630,20,0.000817987,1297.64,0.000190274,301.847,""
362492,20,0.000808432,1299.97,0.000188051,302.388,""
364659,20,0.000800487,1301.71,0.000186203,302.794,""
367683,20,0.000790952,1304.12,0.000183985,303.353,""
369602,20,0.000784445,1305.63,0.000182472,303.705,""
371680,20,0.000777504,1307.25,0.000180857,304.083,""
374066,20,0.00077118,1309.1,0.000179386,304.513,""
377203,20,0.000761687,1311.5,0.000177178,305.072,""
379843,20,0.000752472,1313.5,0.000175034,305.536,""
381864,20,0.000745572,1315.01,0.000173429,305.888,""
384451,20,0.000737269,1316.93,0.000171498,306.334,""
387365,20,0.000728185,1319.07,0.000169385,306.831,""
389932,20,0.000720205,1320.93,0.000167529,307.263,""
392290,20,0.000712693,1322.62,0.000165781,307.657,""
394378,20,0.000707503,1324.1,0.000164574,308.002,""
397013,20,0.000699914,1325.95,0.000162808,308.433,""
399159,20,0.000694012,1327.45,0.000161436,308.78,""
401352,20,0.000687397,1328.96,0.000159897,309.133,""
403375,20,0.000680861,1330.35,0.000158377,309.455,""
405486,20,0.000676645,1331.78,0.000157396,309.788,""
407257,20,0.000672045,1332.97,0.000156326,310.066,""
409467,20,0.000664672,1334.45,0.000154611,310.409,""
411707,20,0.000660253,1335.93,0.000153583,310.754,""
413044,20,0.000656452,1336.81,0.000152699,310.959,""
414575,20,0.00065181,1337.81,0.000151619,311.192,""
416045,20,0.000648292,1338.77,0.000150801,311.414,""
417403,20,0.000643796,1339.65,0.000149755,311.618,""
418513,20,0.000641203,1340.36,0.000149152,311.784,""
418544,20,0.000641315,1340.38,0.000149178,311.789,""
418555,20,0.000641355,1340.39,0.000149187,311.79,""
418555,20,NaN,NaN,NaN,NaN,"Ampoule removed"
418556,20,NaN,NaN,NaN,NaN,""
418557,20,NaN,NaN,NaN,NaN,""
418558,20,NaN,NaN,NaN,NaN,""
418559,20,NaN,NaN,NaN,NaN,""

File: calorimetry_data_3.csv
"Time","Temperature [AmbientT(Therm3T)]","Temperature [Temperature]","Heat flow [Signal]","Heat [Signal]","Normalized heat flow [Signal]","Normalized heat [Signal]","Time markers"
-2404.38,21.9911,19.9999,NaN,NaN,NaN,NaN,""
-2403.68,21.9909,19.9999,-1.15177e-06,NaN,-2.63623e-07,NaN,""
-2380.88,21.983,20.0002,-8.0567e-07,NaN,-1.84406e-07,NaN,""
-2363.53,21.993,20.0003,-5.42311e-07,NaN,-1.24127e-07,NaN,""
-2344.11,22.0043,20.0002,-4.12699e-07,NaN,-9.44607e-08,NaN,""
-2342.03,22.0054,20.0002,-4.0096e-07,NaN,-9.17739e-08,NaN,""
-2331.14,22.1416,20.0001,-3.39311e-07,NaN,-7.76632e-08,NaN,""
-2314.55,22.0989,20.0001,-2.45395e-07,NaN,-5.61674e-08,NaN,""
-2308.4,22.083,20,-8.91091e-08,NaN,-2.03958e-08,NaN,""
-2302.44,22.0675,20.0001,5.73525e-08,NaN,1.31271e-08,NaN,""
-2261.39,21.9536,20.0002,9.01919e-08,NaN,2.06436e-08,NaN,""
-2251.54,21.9701,20.0002,1.6738e-07,NaN,3.83108e-08,NaN,""
-2241.69,21.9909,20.0001,2.44568e-07,NaN,5.59779e-08,NaN,""
-2226.87,22.0149,20,6.77457e-08,NaN,1.5506e-08,NaN,""
-2209.81,22.0202,20,-1.35727e-07,NaN,-3.1066e-08,NaN,""
-2190.36,22.0225,19.9999,-7.11648e-08,NaN,-1.62886e-08,NaN,""
-2180.31,22.0024,19.9999,-3.78171e-08,NaN,-8.65578e-09,NaN,""
-2170.27,21.9857,19.9999,-4.46935e-09,NaN,-1.02297e-09,NaN,""
-2149.08,21.9892,19.9999,-1.25358e-07,NaN,-2.86927e-08,NaN,""
-2138.38,21.9909,20,-2.47478e-07,NaN,-5.66441e-08,NaN,""
-2128.84,21.9925,20.0003,-5.05535e-07,NaN,-1.1571e-07,NaN,""
-2120.36,21.9939,20.0003,-6.352e-07,NaN,-1.45388e-07,NaN,""
-2109.12,21.9957,20.0003,-6.07708e-07,NaN,-1.39096e-07,NaN,""
-2102.7,21.9954,20.0003,-7.65786e-07,NaN,-1.75277e-07,NaN,""
-2096.27,21.9903,20.0003,-9.23864e-07,NaN,-2.11459e-07,NaN,""
-2053.9,21.9569,20.0002,-6.08651e-07,NaN,-1.39311e-07,NaN,""
-2051.2,21.9548,20.0002,-5.49871e-07,NaN,-1.25857e-07,NaN,""
-2040.94,21.9679,20.0002,-3.27166e-07,NaN,-7.48834e-08,NaN,""
-2030.69,21.981,20.0001,-1.0446e-07,NaN,-2.39095e-08,NaN,""
-2007.51,21.9785,20.0001,3.97686e-07,NaN,9.10245e-08,NaN,""
-1966.18,21.974,19.9999,-1.88085e-07,NaN,-4.30498e-08,NaN,""
-1936.58,21.9708,19.9998,-5.34314e-08,NaN,-1.22297e-08,NaN,""
-1906.98,21.9676,20.0002,8.1222e-08,NaN,1.85905e-08,NaN,""
-1886.96,21.9654,20.0002,-2.69103e-07,NaN,-6.15936e-08,NaN,""
-1872.2,21.9638,20,-5.27351e-07,NaN,-1.20703e-07,NaN,""
-1850.75,21.9615,20,-4.85741e-07,NaN,-1.11179e-07,NaN,""
-1831.33,21.9594,20,-2.17998e-07,NaN,-4.98965e-08,NaN,""
-1823.7,21.9585,20,-3.07907e-07,NaN,-7.04753e-08,NaN,""
-1773.34,21.9723,20,-9.01918e-07,NaN,-2.06436e-07,NaN,""
-1758.99,21.9763,19.9999,-1.07109e-06,NaN,-2.45157e-07,NaN,""
-1744.88,21.9801,19.9999,-9.35051e-07,NaN,-2.14019e-07,NaN,""
-1735.3,21.9828,19.9999,-1.10667e-06,NaN,-2.53301e-07,NaN,""
-1727.54,21.9762,19.9998,-1.17585e-06,NaN,-2.69135e-07,NaN,""
-1717.27,21.9675,19.9998,-9.67984e-07,NaN,-2.21557e-07,NaN,""
-1698.07,21.9512,19.9998,-1.23665e-06,NaN,-2.83051e-07,NaN,""
-1677.25,21.942,19.9997,-9.05403e-07,NaN,-2.07234e-07,NaN,""
-1656.44,21.9658,19.9997,-5.74157e-07,NaN,-1.31416e-07,NaN,""
-1644.42,21.9795,19.9996,-7.4179e-07,NaN,-1.69785e-07,NaN,""
-1637.44,21.9727,19.9996,-6.07407e-07,NaN,-1.39027e-07,NaN,""
-1618.3,21.954,19.9999,5.5028e-07,NaN,1.25951e-07,NaN,""
-1603.57,21.9556,20.0001,9.57336e-07,NaN,2.1912e-07,NaN,""
-1580.1,21.9657,20,1.60551e-06,NaN,3.67478e-07,NaN,""
-1578.99,21.9648,20,1.63618e-06,NaN,3.74497e-07,NaN,""
-1562.16,21.9511,20,2.08785e-06,NaN,4.77879e-07,NaN,""
-1550.96,21.942,20,1.94942e-06,NaN,4.46193e-07,NaN,""
-1539.75,21.9329,19.9999,1.81098e-06,NaN,4.14508e-07,NaN,""
-1531.04,21.9263,19.9999,1.81288e-06,NaN,4.14942e-07,NaN,""
-1522.32,21.9288,19.9998,1.81478e-06,NaN,4.15377e-07,NaN,""
-1496.79,21.9362,19.9997,1.46697e-06,NaN,3.35769e-07,NaN,""
-1470.1,21.8818,19.9996,1.10326e-06,NaN,2.5252e-07,NaN,""
-1459.43,21.8777,19.9996,9.33996e-07,NaN,2.13778e-07,NaN,""
-1436.79,21.9094,20,5.74711e-07,NaN,1.31543e-07,NaN,""
-1424.2,21.9035,20,3.74939e-07,NaN,8.5818e-08,NaN,""
-1391.18,21.888,19.9999,-1.49046e-07,NaN,-3.41145e-08,NaN,""
-1381.97,21.8876,19.9998,-3.3732e-07,NaN,-7.72077e-08,NaN,""
-1372.76,21.8966,19.9998,-5.25594e-07,NaN,-1.20301e-07,NaN,""
-1359.88,21.9092,19.9998,-8.65924e-07,NaN,-1.98197e-07,NaN,""
-1346.99,21.9168,19.9998,-1.20625e-06,NaN,-2.76094e-07,NaN,""
-1321.25,21.8942,19.9998,-1.42356e-06,NaN,-3.25832e-07,NaN,""
-1309.91,21.9394,19.9998,-1.51933e-06,NaN,-3.47753e-07,NaN,""
-1281.27,21.9381,19.9998,-1.9654e-06,NaN,-4.49851e-07,NaN,""
-1262.52,21.9373,19.9999,-2.57733e-06,NaN,-5.89913e-07,NaN,""
-1248.44,21.9367,19.9999,-2.72145e-06,NaN,-6.22901e-07,NaN,""
-1235.17,21.9364,19.9998,-2.83493e-06,NaN,-6.48873e-07,NaN,""
-1235,21.9364,19.9998,-2.83636e-06,NaN,-6.49201e-07,NaN,""
-1222.18,21.9375,19.9998,-2.9543e-06,NaN,-6.76195e-07,NaN,""
-1194.73,21.9397,19.9998,-3.98974e-06,NaN,-9.13194e-07,NaN,""
-1167.99,21.9418,19.9998,-4.49328e-06,NaN,-1.02845e-06,NaN,""
-1152.08,21.9431,19.9998,-4.24757e-06,NaN,-9.72206e-07,NaN,""
-1143.58,21.9744,19.9998,-3.98778e-06,NaN,-9.12744e-07,NaN,""
-1131.13,22.0203,19.9998,-3.57955e-06,NaN,-8.19307e-07,NaN,""
-1125.63,22.0143,19.9998,-3.39031e-06,NaN,-7.75991e-07,NaN,""
-1110.78,21.9983,20.0001,-2.46e-06,NaN,-5.63057e-07,NaN,""
-1102.22,21.9894,20.0001,-1.87826e-06,NaN,-4.29906e-07,NaN,""
-1058.18,21.9965,20,1.18426e-06,NaN,2.71059e-07,NaN,""
-1043.01,21.9989,20,1.73125e-06,NaN,3.96258e-07,NaN,""
-1027.84,22.0013,20,2.27825e-06,NaN,5.21457e-07,NaN,""
-1002.78,22.0054,20,3.51728e-06,NaN,8.05053e-07,NaN,""
-989.839,21.9961,20,3.67989e-06,NaN,8.42274e-07,NaN,""
-954.712,21.9711,20.0001,4.03455e-06,NaN,9.2345e-07,NaN,""
-925.5,22.0161,20.0001,3.2224e-06,NaN,7.3756e-07,NaN,""
-924.92,22.0187,20.0001,3.20628e-06,NaN,7.3387e-07,NaN,""
-915.942,22.0335,20,2.95666e-06,NaN,6.76737e-07,NaN,""
-899.374,22.0148,20,2.49605e-06,NaN,5.71309e-07,NaN,""
-875.628,22.0118,19.9999,1.7857e-06,NaN,4.08721e-07,NaN,""
-873.144,22.0115,19.9998,1.71061e-06,NaN,3.91533e-07,NaN,""
-853.577,22.0091,20.0003,1.11909e-06,NaN,2.56143e-07,NaN,""
-851.882,22.0089,20.0003,1.09551e-06,NaN,2.50747e-07,NaN,""
-835.128,22.0681,20.0003,8.6241e-07,NaN,1.97393e-07,NaN,""
-817.21,22.0495,20.0002,6.22753e-07,NaN,1.42539e-07,NaN,""
-778.664,22.0095,20.0001,7.86869e-07,NaN,1.80103e-07,NaN,""
-751.47,21.992,20,1.10994e-06,NaN,2.54049e-07,NaN,""
-724.276,21.995,19.9999,1.43301e-06,NaN,3.27996e-07,NaN,""
-700.569,21.9976,19.9999,1.08814e-06,NaN,2.4906e-07,NaN,""
-683.061,21.9995,19.9999,1.07707e-06,NaN,2.46526e-07,NaN,""
-674.268,21.9977,19.9999,8.31032e-07,NaN,1.90211e-07,NaN,""
-665.475,21.9895,19.9999,5.84995e-07,NaN,1.33897e-07,NaN,""
-649.116,21.9742,19.9999,7.44644e-07,NaN,1.70438e-07,NaN,""
-630.233,21.9566,19.9999,1.54675e-07,NaN,3.54029e-08,NaN,""
-613.1,21.9406,19.9999,3.16159e-07,NaN,7.23642e-08,NaN,""
-604.678,21.9505,19.9999,2.90374e-07,NaN,6.64624e-08,NaN,""
-572.648,22.0061,19.9999,NaN,NaN,NaN,NaN,""
-519.875,21.9902,19.9999,NaN,NaN,NaN,NaN,""
-467.103,21.9744,19.9999,NaN,NaN,NaN,NaN,""
-400.612,21.9353,19.9999,NaN,NaN,NaN,NaN,""
-376.581,21.9971,19.9999,NaN,NaN,NaN,NaN,""
-353.737,21.8412,19.9999,NaN,NaN,NaN,NaN,""
-331.14,21.9776,20,NaN,NaN,NaN,NaN,""
-297.003,21.9713,20,NaN,NaN,NaN,NaN,""
-293.131,21.9943,20,NaN,NaN,NaN,NaN,""
-280.378,22.0699,19.9998,NaN,NaN,NaN,NaN,""
-248.618,22.0158,19.9995,NaN,NaN,NaN,NaN,""
-222.361,22.0255,19.9997,NaN,NaN,NaN,NaN,""
-209.396,22.0303,19.9999,NaN,NaN,NaN,NaN,""
[...]
253286,21.6036,19.9998,0.00134632,1475.93,0.000308152,337.82,""
256133,21.6897,20,0.00131784,1479.73,0.000301634,338.688,""
258947,21.7016,19.9997,0.00129,1483.4,0.000295262,339.528,""
261957,21.6791,19.9998,0.00126138,1487.24,0.000288711,340.406,""
264697,21.5772,19.9997,0.00123557,1490.66,0.000282805,341.189,""
267475,21.5327,19.9999,0.00120983,1494.05,0.000276912,341.967,""
270326,21.4593,19.9998,0.0011845,1497.46,0.000271114,342.748,""
273576,21.4473,19.9999,0.00115633,1501.27,0.000264666,343.618,""
277081,21.4271,19.9996,0.00112668,1505.27,0.00025788,344.534,""
280599,21.4171,20.0001,0.00109835,1509.18,0.000251396,345.43,""
283618,21.4187,20,0.00107483,1512.46,0.000246013,346.181,""
286835,21.3969,20.0001,0.00105056,1515.88,0.000240459,346.963,""
290644,21.3857,19.9998,0.00102249,1519.83,0.000234033,347.867,""
293799,21.3705,20.0001,0.00100026,1523.02,0.000228944,348.597,""
296831,21.3835,19.9999,0.00097896,1526.02,0.000224069,349.284,""
300729,21.3755,20,0.000953222,1529.79,0.000218178,350.146,""
303940,21.3661,19.9996,0.000931853,1532.81,0.000213287,350.838,""
307395,21.3424,20,0.00091024,1535.99,0.000208341,351.567,""
310437,21.3281,19.9999,0.000891895,1538.74,0.000204142,352.194,""
313948,21.3122,19.9999,0.000871556,1541.83,0.000199486,352.903,""
316715,21.2855,19.9998,0.000855826,1544.22,0.000195886,353.45,""
319356,21.2768,19.9997,0.000841328,1546.46,0.000192568,353.963,""
322343,21.3207,20,0.000825481,1548.95,0.000188941,354.532,""
325541,21.2767,19.9999,0.000808389,1551.56,0.000185028,355.13,""
328123,21.277,20.0006,0.000795467,1553.63,0.000182071,355.604,""
330760,21.253,19.9996,0.000782323,1555.71,0.000179062,356.08,""
333009,21.259,19.9999,0.00077169,1557.46,0.000176629,356.48,""
336051,21.2801,20,0.000756849,1559.79,0.000173232,357.012,""
338746,21.2951,20,0.000744588,1561.81,0.000170425,357.475,""
341719,21.2844,20,0.000731124,1564,0.000167344,357.978,""
344705,21.3253,19.9998,0.000718056,1566.17,0.000164353,358.473,""
347297,21.3121,19.9998,0.000707394,1568.01,0.000161912,358.896,""
349988,21.2976,20,0.000695743,1569.9,0.000159245,359.328,""
353282,21.3026,19.9996,0.00068247,1572.17,0.000156207,359.847,""
356226,21.3118,20.0002,0.000671213,1574.17,0.000153631,360.303,""
359207,21.3216,20.0001,0.000659988,1576.15,0.000151062,360.758,""
362052,21.3128,19.9997,0.00064951,1578.01,0.000148663,361.184,""
365007,21.331,20.0003,0.000639076,1579.92,0.000146275,361.619,""
368055,21.2992,19.9995,0.000628154,1581.85,0.000143775,362.061,""
370700,21.333,19.9998,0.000618959,1583.5,0.000141671,362.439,""
373558,21.2948,19.9999,0.000609139,1585.25,0.000139423,362.841,""
376988,21.2838,20.0001,0.000597953,1587.32,0.000136863,363.314,""
379707,21.2881,19.9997,0.000588966,1588.93,0.000134806,363.684,""
382367,21.2688,19.9997,0.000580609,1590.49,0.000132893,364.04,""
385305,21.2818,19.9999,0.000572183,1592.18,0.000130964,364.427,""
388725,21.273,19.9999,0.000561938,1594.12,0.000128619,364.871,""
391928,21.2605,19.9992,0.000553,1595.91,0.000126574,365.28,""
394915,21.2458,19.9997,0.000544777,1597.55,0.000124691,365.655,""
397795,21.2394,19.9999,0.000536786,1599.1,0.000122862,366.011,""
400785,21.2389,19.9997,0.000528978,1600.7,0.000121075,366.376,""
403964,21.2533,20,0.000520115,1602.36,0.000119047,366.757,""
407098,21.2592,19.9999,0.000512821,1603.98,0.000117377,367.128,""
410149,21.2671,19.9999,0.000504893,1605.53,0.000115563,367.483,""
412813,21.5105,19.9998,0.000498561,1606.87,0.000114113,367.789,""
412939,21.479,20.0002,0.000498649,1606.93,0.000114134,367.803,""
412939,21.479,20.0002,NaN,NaN,NaN,NaN,"Ampoule removed"
412943,21.4783,20.0002,NaN,NaN,NaN,NaN,""