Folder: CaloCem/TAInstCalorimetry/DATA (part 5)

File: peak_detection_example1.csv
Summary
Name,"JAA_CAL149.rslt"
Start time,2022 Okt 18 - 8:03
End time,2022 Okt 21 - 10:26
Operator,"JAA"
Results file path,"C:\Users\ga42fix\Desktop\AK Gädt\AK Gädt Kalo2\JAA\JAA_CAL149.rslt"
General Experiment Info
Bath temperature,20°C
,Sample - 213:4
Total mass,6g
Name,"JAA_CAL149"
,Component - OPC
Mass,4g
Name,"OPC"
ID,"Bernburg CEM I 42.5R 29.09.21"

"Time","Temperature","Heat flow","Heat","Normalized heat flow","Normalized heat","Time markers"
-3632.85,20,NaN,NaN,NaN,NaN,""
-3631.38,20,-8.88905e-07,NaN,-2.22226e-07,NaN,""
-3613.87,20,-6.1622e-07,NaN,-1.54055e-07,NaN,""
-3589.32,20,-5.13757e-07,NaN,-1.28439e-07,NaN,""
-3562.57,20,3.74134e-07,NaN,9.35335e-08,NaN,""
-3536.38,20,9.16486e-08,NaN,2.29121e-08,NaN,""
-3508.52,20,8.5962e-07,NaN,2.14905e-07,NaN,""
-3474.1,20,8.54016e-07,NaN,2.13504e-07,NaN,""
-3447.94,20,1.54387e-06,NaN,3.85966e-07,NaN,""
-3421.31,20,1.19285e-06,NaN,2.98212e-07,NaN,""
-3403.78,20,9.60419e-07,NaN,2.40105e-07,NaN,""
-3378.99,20,1.6977e-06,NaN,4.24424e-07,NaN,""
-3343.22,20,1.3892e-06,NaN,3.47301e-07,NaN,""
-3315.42,20,2.02961e-06,NaN,5.07402e-07,NaN,""
-3277.88,20,9.91489e-07,NaN,2.47872e-07,NaN,""
-3256.88,20,1.11287e-06,NaN,2.78216e-07,NaN,""
-3233.17,20,4.81593e-07,NaN,1.20398e-07,NaN,""
-3190.53,20,1.97856e-07,NaN,4.94639e-08,NaN,""
-3173.26,20,-6.22951e-07,NaN,-1.55738e-07,NaN,""
-3140.97,20,-3.33115e-07,NaN,-8.32787e-08,NaN,""
-3107.89,20,-1.41937e-06,NaN,-3.54842e-07,NaN,""
-3055.7,20,-2.23556e-06,NaN,-5.58889e-07,NaN,""
-3018.73,20,-2.12517e-06,NaN,-5.31292e-07,NaN,""
-2990.22,20,-2.47409e-06,NaN,-6.18523e-07,NaN,""
-2963.85,20,-2.18168e-06,NaN,-5.45421e-07,NaN,""
-2938.96,20,-1.80786e-06,NaN,-4.51965e-07,NaN,""
-2914.29,20,-2.47193e-06,NaN,-6.17982e-07,NaN,""
-2851.02,20,-1.17962e-06,NaN,-2.94904e-07,NaN,""
-2812.63,20,-2.53198e-07,NaN,-6.32995e-08,NaN,""
-2778.66,20,-3.79437e-07,NaN,-9.48592e-08,NaN,""
-2746.88,20,2.51976e-07,NaN,6.29939e-08,NaN,""
-2724.19,20,2.29102e-08,NaN,5.72754e-09,NaN,""
-2685.28,20,6.37944e-07,NaN,1.59486e-07,NaN,""
-2666.42,20,8.59643e-08,NaN,2.14911e-08,NaN,""
-2642.11,20,2.25369e-07,NaN,5.63423e-08,NaN,""
-2632.29,20,-3.45828e-07,NaN,-8.64569e-08,NaN,""
-2606.3,20,-1.06346e-07,NaN,-2.65864e-08,NaN,""
-2552.39,20,-5.5733e-07,NaN,-1.39333e-07,NaN,""
-2535.84,20,-1.79709e-07,NaN,-4.49271e-08,NaN,""
-2508.28,20,-6.40877e-07,NaN,-1.60219e-07,NaN,""
-2453.64,20,-7.11386e-07,NaN,-1.77846e-07,NaN,""
-2416.82,20,-1.23561e-06,NaN,-3.08901e-07,NaN,""
-2390.24,20,-8.51856e-07,NaN,-2.12964e-07,NaN,""
-2355.83,20,-1.37496e-06,NaN,-3.43741e-07,NaN,""
-2320.42,20,-8.81553e-07,NaN,-2.20388e-07,NaN,""
-2277.54,20,8.44326e-09,NaN,2.11081e-09,NaN,""
-2244.85,20,-1.19685e-07,NaN,-2.99212e-08,NaN,""
-2223.21,20,5.19713e-07,NaN,1.29928e-07,NaN,""
-2201.5,20,4.11351e-07,NaN,1.02838e-07,NaN,""
-2171.18,20,9.36488e-07,NaN,2.34122e-07,NaN,""
-2135.51,20,8.3218e-07,NaN,2.08045e-07,NaN,""
-2091.13,20,1.64548e-06,NaN,4.1137e-07,NaN,""
-2057.94,20,2.07442e-06,NaN,5.18604e-07,NaN,""
-2026.31,20,1.35892e-06,NaN,3.3973e-07,NaN,""
-1982.02,20,1.18063e-06,NaN,2.95158e-07,NaN,""
-1972.63,20,1.43534e-06,NaN,3.58836e-07,NaN,""
-1943.95,20,1.1607e-06,NaN,2.90176e-07,NaN,""
-1922.35,20,1.35414e-06,NaN,3.38534e-07,NaN,""
-1898.6,20,8.29562e-07,NaN,2.0739e-07,NaN,""
-1864.95,20,1.37563e-06,NaN,3.43906e-07,NaN,""
-1833.38,20,8.63791e-07,NaN,2.15948e-07,NaN,""
2220.48,20,NaN,NaN,NaN,NaN,"Reaction start. Measuring position. Signal correct"
2220.62,20,8.86434e-05,1.26085e-05,2.21609e-05,3.15212e-06,""
2545.37,20,0.112461,1.68707,0.0281152,0.421766,""
2598.5,20,0.239138,11.7435,0.0597844,2.93589,""
2656.62,20,0.251229,26.3478,0.0628072,6.58694,""
2751.97,20,0.203832,48.2229,0.0509579,12.0557,""
2860.12,20,0.148343,67.1573,0.0370858,16.7893,""
2953.5,20,0.111509,79.2087,0.0278772,19.8022,""
3055.12,20,0.0819519,88.9569,0.020488,22.2392,""
3194.43,20,0.0545702,98.3205,0.0136425,24.5801,""
3375.08,20,0.0335454,106.092,0.00838635,26.523,""
3585.34,20,0.0205365,111.626,0.00513413,27.9065,""
3867.73,20,0.0122987,116.101,0.00307467,29.0252,""
4224.55,20,0.00799859,119.606,0.00199965,29.9014,""
4819.56,20,0.00535991,123.445,0.00133998,30.8612,""
5734.01,20,0.00375882,127.519,0.000939706,31.8799,""
7079.76,20,0.00264585,131.739,0.000661463,32.9347,""
8482.62,20,0.00203108,134.979,0.000507771,33.7447,""
9636.18,20,0.00171398,137.129,0.000428495,34.2821,""
11172.7,20,0.00142275,139.525,0.000355687,34.8812,""
12620.6,20,0.0012249,141.435,0.000306225,35.3587,""
13992.6,20,0.00108432,143.016,0.000271079,35.7539,""
15258.3,20,0.000985753,144.323,0.000246438,36.0807,""
16738.3,20,0.000952909,145.731,0.000238227,36.4326,""
18226.8,20,0.000830835,147.042,0.000207709,36.7604,""
19323.7,20,0.000778233,147.923,0.000194558,36.9807,""
20572,20,0.00072651,148.861,0.000181627,37.2152,""
21590.1,20,0.0006901,149.581,0.000172525,37.3952,""
22651.7,20,0.000656272,150.295,0.000164068,37.5736,""
23473,20,0.000631273,150.823,0.000157818,37.7057,""
24448.6,20,0.000607494,151.427,0.000151874,37.8567,""
25520,20,0.000584385,152.065,0.000146096,38.0161,""
26323.8,20,0.000566938,152.527,0.000141735,38.1318,""
27535.3,20,0.000545678,153.201,0.00013642,38.3003,""
28650.8,20,0.000528642,153.801,0.000132161,38.4502,""
29668,20,0.000514857,154.331,0.000128714,38.5828,""
30889.9,20,0.000499359,154.95,0.00012484,38.7376,""
32655,20,0.000478076,155.813,0.000119519,38.9532,""
33738.1,20,0.000468098,156.325,0.000117025,39.0813,""
35031.8,20,0.000455628,156.923,0.000113907,39.2307,""
36418.5,20,0.000443937,157.545,0.000110984,39.3863,""
38206.6,20,0.000437411,158.331,0.000109353,39.5829,""
39473.4,20,0.000437184,158.886,0.000109296,39.7214,""
40846.7,20,0.000437885,159.487,0.000109471,39.8717,""
42382.1,20,0.000438314,160.16,0.000109579,40.0401,""
43728.9,20,0.000440239,160.752,0.00011006,40.188,""
44843.3,20,0.0004429,161.244,0.000110725,40.311,""
46299,20,0.000443477,161.889,0.000110869,40.4723,""
47575.3,20,0.000446287,162.457,0.000111572,40.6143,""
49116.9,20,0.000447654,163.146,0.000111913,40.7864,""
50156,20,0.000448964,163.611,0.000112241,40.9028,""
51647,20,0.000449479,164.281,0.00011237,41.0703,""
52911.2,20,0.000451172,164.85,0.000112793,41.2126,""
54300.1,20,0.000451853,165.477,0.000112963,41.3692,""
55404.7,20,0.000452871,165.977,0.000113218,41.4941,""
56973.8,20,0.000453239,166.688,0.00011331,41.672,""
58389,20,0.000454533,167.33,0.000113633,41.8326,""
59899.1,20,0.000455766,168.018,0.000113942,42.0045,""
61375.6,20,0.000457621,168.692,0.000114405,42.1731,""
62527,20,0.000458421,169.219,0.000114605,42.3048,""
63605.3,20,0.000459096,169.714,0.000114774,42.4284,""
65013.6,20,0.000459409,170.36,0.000114852,42.5901,""
66647.4,20,0.000460388,171.112,0.000115097,42.778,""
68299.5,20,0.000461812,171.874,0.000115453,42.9685,""
69781,20,0.000462164,172.559,0.000115541,43.1396,""
70913.8,20,0.000463092,173.083,0.000115773,43.2706,""
72120.4,20,0.000463365,173.641,0.000115841,43.4104,""
73461.4,20,0.000465372,174.264,0.000116343,43.5661,""
74800.5,20,0.000464171,174.887,0.000116043,43.7218,""
76466.5,20,0.000465006,175.661,0.000116252,43.9152,""
78365.2,20,0.0004657,176.544,0.000116425,44.1361,""
80117.5,20,0.000466986,177.363,0.000116747,44.3406,""
81374.9,20,0.000465691,177.948,0.000116423,44.4871,""
82733.6,20,0.000464067,178.58,0.000116017,44.645,""
84464.8,20,0.000464655,179.384,0.000116164,44.8459,""
[...]
157658,20,0.000908788,217.135,0.000227197,54.2836,""
159375,20,0.00100327,218.774,0.000250817,54.6935,""
161401,20,0.00113437,220.937,0.000283592,55.2343,""
163253,20,0.00127643,223.166,0.000319107,55.7916,""
164982,20,0.00142701,225.499,0.000356753,56.3749,""
167264,20,0.00165185,229.008,0.000412961,57.2519,""
169177,20,0.0018666,232.371,0.00046665,58.0928,""
171162,20,0.00210999,236.314,0.000527498,59.0786,""
172943,20,0.00234538,240.281,0.000586344,60.0702,""
174767,20,0.00259858,244.787,0.000649644,61.1968,""
176614,20,0.00286756,249.833,0.00071689,62.4582,""
177851,20,0.00305122,253.495,0.000762806,63.3738,""
179697,20,0.00332874,259.382,0.000832185,64.8455,""
181729,20,0.00363463,266.458,0.000908656,66.6146,""
183122,20,0.0038423,271.665,0.000960575,67.9163,""
184565,20,0.00405673,277.364,0.00101418,69.341,""
185853,20,0.00424689,282.713,0.00106172,70.6783,""
187378,20,0.00446387,289.353,0.00111597,72.3382,""
189361,20,0.00473652,298.482,0.00118413,74.6204,""
190841,20,0.00493121,305.633,0.0012328,76.4083,""
192658,20,0.00515836,314.803,0.00128959,78.7008,""
194743,20,0.00540465,325.819,0.00135116,81.4547,""
195941,20,0.00553795,332.375,0.00138449,83.0937,""
197170,20,0.00566915,339.262,0.00141729,84.8154,""
198432,20,0.00579684,346.498,0.00144921,86.6246,""
200111,20,0.00595809,356.369,0.00148952,89.0922,""
201854,20,0.00611097,366.891,0.00152774,91.7227,""
203268,20,0.0062256,375.613,0.0015564,93.9032,""
205138,20,0.00636238,387.38,0.0015906,96.8451,""
206776,20,0.00646985,397.894,0.00161746,99.4736,""
208456,20,0.00656479,408.845,0.0016412,102.211,""
209814,20,0.0066344,417.808,0.0016586,104.452,""
211567,20,0.00670092,429.5,0.00167523,107.375,""
212991,20,0.00674997,439.08,0.00168749,109.77,""
214698,20,0.00679218,450.643,0.00169804,112.661,""
216214,20,0.00681599,460.96,0.001704,115.24,""
217881,20,0.00682956,472.33,0.00170739,118.083,""
219402,20,0.00682783,482.721,0.00170696,120.68,""
221583,20,0.00681221,497.596,0.00170305,124.399,""
223137,20,0.00679056,508.172,0.00169764,127.043,""
224238,20,0.006771,515.636,0.00169275,128.909,""
225760,20,0.00674255,525.918,0.00168564,131.48,""
227349,20,0.006691,536.588,0.00167275,134.147,""
228702,20,0.00664787,545.611,0.00166197,136.403,""
230312,20,0.00658951,556.264,0.00164738,139.066,""
232357,20,0.00650608,569.661,0.00162652,142.415,""
234660,20,0.00639889,584.52,0.00159972,146.13,""
237166,20,0.00626599,600.393,0.0015665,150.098,""
238416,20,0.00619144,608.18,0.00154786,152.045,""
240093,20,0.00608268,618.472,0.00152067,154.618,""
241807,20,0.00596224,628.797,0.00149056,157.199,""
243362,20,0.00584489,637.974,0.00146122,159.494,""
244770,20,0.00573185,646.125,0.00143296,161.531,""
246505,20,0.00558719,655.95,0.0013968,163.988,""
248119,20,0.00543894,664.849,0.00135974,166.212,""
250206,20,0.00523851,675.99,0.00130963,168.997,""
251920,20,0.00506491,684.816,0.00126623,171.204,""
253951,20,0.00485237,694.89,0.00121309,173.722,""
255795,20,0.00465966,703.662,0.00116492,175.916,""
257397,20,0.00449598,710.996,0.001124,177.749,""
259200,20,0.00431395,718.94,0.00107849,179.735,""
260349,20,0.00420167,723.829,0.00105042,180.957,""
261550,20,0.00408885,728.808,0.00102221,182.202,""
263075,20,0.00395066,734.936,0.000987666,183.734,""
264105,20,0.00386096,738.962,0.000965239,184.74,""
264136,20,0.00385817,739.081,0.000964544,184.77,""
264146,20,0.00385732,739.118,0.000964331,184.779,""
264146,20,NaN,NaN,NaN,NaN,""
264147,20,NaN,NaN,NaN,NaN,""
264148,20,NaN,NaN,NaN,NaN,""
264149,20,NaN,NaN,NaN,NaN,""
264150,20,NaN,NaN,NaN,NaN,""
264151,20,NaN,NaN,NaN,NaN,"Ampoule removed"
264151,20,NaN,NaN,NaN,NaN,""
264152,20,NaN,NaN,NaN,NaN,""

File: peak_detection_example7.csv
"Time","Temperature [AmbientT(Therm3T)]","Temperature [Temperature]","Heat flow [Signal]","Heat [Signal]","Normalized heat flow [Signal]","Normalized heat [Signal]","Time markers"
-2394.9,21.9503,20.0002,NaN,NaN,NaN,NaN,""
-2394.23,21.9515,20.0002,-5.26514e-08,NaN,-1.20181e-08,NaN,""
-2374.83,21.985,20.0003,3.19484e-07,NaN,7.29248e-08,NaN,""
-2361.25,22.0491,20.0003,-1.19996e-07,NaN,-2.73901e-08,NaN,""
-2349.66,22.1416,20.0001,-4.95203e-07,NaN,-1.13034e-07,NaN,""
-2335.77,22.1058,20,-4.92881e-07,NaN,-1.12504e-07,NaN,""
-2324.32,22.0764,19.9999,1.21236e-06,NaN,2.76731e-07,NaN,""
-2321.15,22.068,19.9999,3.53435e-07,NaN,8.06746e-08,NaN,""
-2317.98,22.0592,19.9998,-5.05486e-07,NaN,-1.15381e-07,NaN,""
-2301.92,22.0147,19.9999,-4.31147e-07,NaN,-9.84129e-08,NaN,""
-2285.86,21.9701,20.0001,-3.56808e-07,NaN,-8.14444e-08,NaN,""
-2269.53,21.9713,20.0001,2.99188e-07,NaN,6.82921e-08,NaN,""
-2252.35,22.0074,20.0001,9.89315e-07,NaN,2.25819e-07,NaN,""
-2239.98,22.0165,20,5.14832e-08,NaN,1.17515e-08,NaN,""
-2227.61,22.0204,20,-8.86348e-07,NaN,-2.02316e-07,NaN,""
-2208.16,22.0211,19.9999,-7.52695e-07,NaN,-1.71809e-07,NaN,""
-2195.46,21.9956,19.9999,-6.65456e-07,NaN,-1.51896e-07,NaN,""
-2185.42,21.9863,20,-5.96422e-07,NaN,-1.36138e-07,NaN,""
-2158.12,21.9907,20.0001,-1.92119e-06,NaN,-4.38528e-07,NaN,""
-2149.85,21.9921,20.0002,-1.13211e-06,NaN,-2.58413e-07,NaN,""
-2142.53,21.9933,20.0002,-8.92406e-08,NaN,-2.03699e-08,NaN,""
-2124.14,21.9963,20.0004,-1.48027e-06,NaN,-3.37883e-07,NaN,""
-2111.02,21.9874,20.0003,-1.04459e-06,NaN,-2.38437e-07,NaN,""
-2105.77,21.9832,20.0003,-2.29156e-08,NaN,-5.23068e-09,NaN,""
-2070,21.955,20.0003,-4.8545e-07,NaN,-1.10808e-07,NaN,""
-2069.72,21.9548,20.0003,-4.89112e-07,NaN,-1.11644e-07,NaN,""
-2060.79,21.9662,20.0001,-5.30828e-07,NaN,-1.21166e-07,NaN,""
-2051.86,21.9776,19.9999,-2.66196e-07,NaN,-6.07616e-08,NaN,""
-2041.61,21.9802,19.9999,3.77782e-08,NaN,8.62319e-09,NaN,""
-2022.15,21.9781,20,5.25059e-07,NaN,1.19849e-07,NaN,""
-2001.21,21.9758,20.0001,-1.50846e-07,NaN,-3.44319e-08,NaN,""
-1955.94,21.9709,19.9998,-1.61209e-06,NaN,-3.67974e-07,NaN,""
-1953.44,21.9706,19.9999,-1.69283e-06,NaN,-3.86403e-07,NaN,""
-1933.21,21.9684,20.0001,9.73058e-07,NaN,2.22109e-07,NaN,""
-1915.9,21.9665,20.0003,9.47747e-08,NaN,2.16331e-08,NaN,""
-1901.27,21.9649,20.0001,-6.474e-07,NaN,-1.47775e-07,NaN,""
-1888.68,21.9636,20,-6.77771e-07,NaN,-1.54707e-07,NaN,""
-1855.86,21.96,20,-7.56937e-07,NaN,-1.72777e-07,NaN,""
-1842.22,21.9585,20,-1.16578e-06,NaN,-2.66099e-07,NaN,""
-1826.07,21.9629,20,-1.64988e-06,NaN,-3.766e-07,NaN,""
-1785.54,21.9741,20,-1.22499e-06,NaN,-2.79615e-07,NaN,""
-1745,21.9753,19.9998,-8.00103e-07,NaN,-1.8263e-07,NaN,""
-1713.76,21.9488,19.9998,-1.91857e-06,NaN,-4.3793e-07,NaN,""
-1700.05,21.9371,19.9997,-6.73479e-07,NaN,-1.53727e-07,NaN,""
-1691.49,21.9469,19.9997,-4.3311e-07,NaN,-9.8861e-08,NaN,""
-1678.03,21.9623,19.9997,-6.13579e-07,NaN,-1.40055e-07,NaN,""
-1662.94,21.9795,19.9996,-1.25334e-06,NaN,-2.86086e-07,NaN,""
-1655.96,21.9727,19.9996,-9.1352e-07,NaN,-2.08519e-07,NaN,""
-1642.23,21.9593,19.9998,3.9974e-07,NaN,9.1244e-08,NaN,""
-1627.49,21.9533,20.0001,4.19257e-07,NaN,9.5699e-08,NaN,""
-1611.79,21.9601,20.0001,4.40052e-07,NaN,1.00446e-07,NaN,""
-1594.37,21.9622,20,1.05053e-06,NaN,2.39791e-07,NaN,""
-1576.72,21.9479,20,2.37944e-06,NaN,5.43126e-07,NaN,""
-1552.43,21.9281,19.9999,2.09825e-06,NaN,4.78944e-07,NaN,""
-1528.13,21.9325,19.9998,1.81707e-06,NaN,4.14762e-07,NaN,""
-1510.77,21.9269,19.9997,1.85614e-06,NaN,4.23678e-07,NaN,""
-1483.08,21.8705,19.9996,2.1255e-06,NaN,4.85163e-07,NaN,""
-1477.95,21.8777,19.9996,2.17534e-06,NaN,4.9654e-07,NaN,""
-1461.38,21.9009,19.9999,2.33652e-06,NaN,5.3333e-07,NaN,""
-1448.79,21.9064,20,9.71069e-07,NaN,2.21655e-07,NaN,""
-1432.03,21.8985,19.9999,-8.47273e-07,NaN,-1.93397e-07,NaN,""
-1417.63,21.8917,19.9999,5.39912e-08,NaN,1.23239e-08,NaN,""
-1400.33,21.8878,19.9998,-6.05456e-07,NaN,-1.38201e-07,NaN,""
-1383.03,21.9047,19.9998,-1.2649e-06,NaN,-2.88725e-07,NaN,""
-1368.21,21.9192,19.9998,-1.2687e-06,NaN,-2.89591e-07,NaN,""
-1358.14,21.9104,19.9998,-1.80182e-06,NaN,-4.1128e-07,NaN,""
-1347.82,21.9013,19.9998,-2.95472e-06,NaN,-6.7444e-07,NaN,""
-1333.6,21.9188,19.9998,-2.29806e-06,NaN,-5.24552e-07,NaN,""
-1327.93,21.9393,19.9998,-2.0361e-06,NaN,-4.64757e-07,NaN,""
-1298.7,21.9381,19.9998,-6.85772e-07,NaN,-1.56533e-07,NaN,""
-1281.04,21.9373,19.9999,-2.15782e-06,NaN,-4.9254e-07,NaN,""
-1268.41,21.9368,19.9999,-2.31827e-06,NaN,-5.29165e-07,NaN,""
-1261.23,21.9365,19.9999,-1.64105e-06,NaN,-3.74583e-07,NaN,""
-1232.44,21.9381,19.9998,-3.31258e-06,NaN,-7.56123e-07,NaN,""
-1203.65,21.9404,19.9998,-4.9841e-06,NaN,-1.13766e-06,NaN,""
-1178.83,21.9424,19.9998,-2.46197e-06,NaN,-5.61966e-07,NaN,""
-1170.6,21.9431,19.9998,-3.47076e-06,NaN,-7.9223e-07,NaN,""
-1164.78,21.9645,19.9998,-3.78972e-06,NaN,-8.65036e-07,NaN,""
-1149.65,22.0203,19.9998,-3.172e-06,NaN,-7.24036e-07,NaN,""
-1144.15,22.0143,19.9998,-2.94743e-06,NaN,-6.72777e-07,NaN,""
-1136.72,22.0063,19.9999,-2.68035e-06,NaN,-6.11813e-07,NaN,""
-1129.3,21.9983,20.0001,-2.41912e-06,NaN,-5.52185e-07,NaN,""
-1114.97,21.9903,20,-1.91503e-06,NaN,-4.37122e-07,NaN,""
-1093.82,21.9937,20,7.71135e-07,NaN,1.76018e-07,NaN,""
-1089.12,21.9945,20,1.54755e-06,NaN,3.53241e-07,NaN,""
-1060.07,21.9991,20,1.85409e-06,NaN,4.23213e-07,NaN,""
-1031.02,22.0038,20,2.33634e-06,NaN,5.33289e-07,NaN,""
-1015.93,22.0015,20,3.64937e-06,NaN,8.32998e-07,NaN,""
-1000.84,21.9908,20,4.58977e-06,NaN,1.04765e-06,NaN,""
-980.596,21.9764,20,3.06777e-06,NaN,7.00245e-07,NaN,""
-961.323,21.9626,20.0001,4.77411e-06,NaN,1.08973e-06,NaN,""
-956.898,21.9595,20.0001,4.00191e-06,NaN,9.1347e-07,NaN,""
-947.854,21.9993,20.0001,2.42354e-06,NaN,5.53194e-07,NaN,""
-943.44,22.0187,20.0001,2.87109e-06,NaN,6.55351e-07,NaN,""
-935.071,22.0341,20.0001,3.71968e-06,NaN,8.49047e-07,NaN,""
-926.702,22.0247,20,3.75268e-06,NaN,8.5658e-07,NaN,""
-916.178,22.0146,20,2.87521e-06,NaN,6.56291e-07,NaN,""
-893.979,22.0118,19.9999,1.02426e-06,NaN,2.33795e-07,NaN,""
-891.664,22.0115,19.9998,1.04936e-06,NaN,2.39524e-07,NaN,""
-870.757,22.0089,20.0003,1.276e-06,NaN,2.91257e-07,NaN,""
-870.402,22.0089,20.0003,1.27985e-06,NaN,2.92137e-07,NaN,""
-858.521,22.0509,20.0003,1.40865e-06,NaN,3.21535e-07,NaN,""
-850.144,22.0645,20.0003,1.32064e-06,NaN,3.01447e-07,NaN,""
-798.229,22.0106,20.0001,7.75215e-07,NaN,1.76949e-07,NaN,""
-772.503,21.9918,20,1.7623e-06,NaN,4.0226e-07,NaN,""
-746.777,21.9946,19.9999,2.74939e-06,NaN,6.27571e-07,NaN,""
-728.791,21.9966,19.9999,9.17006e-07,NaN,2.09314e-07,NaN,""
-713.416,21.9982,19.9999,1.97972e-06,NaN,4.51889e-07,NaN,""
-695.083,21.9999,19.9999,8.17345e-07,NaN,1.86566e-07,NaN,""
-676.75,21.9828,19.9999,-3.45033e-07,NaN,-7.87568e-08,NaN,""
-632.659,21.9415,19.9999,6.57881e-07,NaN,1.50167e-07,NaN,""
-599.869,21.991,19.9999,-5.69452e-07,NaN,-1.29982e-07,NaN,""
-595.229,21.999,19.9999,-7.43125e-07,NaN,-1.69624e-07,NaN,""
-575.884,22.0015,19.9999,NaN,NaN,NaN,NaN,""
-523.112,21.9856,19.9999,NaN,NaN,NaN,NaN,""
-470.34,21.9654,19.9999,NaN,NaN,NaN,NaN,""
-419.132,21.9353,19.9999,NaN,NaN,NaN,NaN,""
-395.101,21.9971,19.9999,NaN,NaN,NaN,NaN,""
-372.234,21.8411,19.9999,NaN,NaN,NaN,NaN,""
-349.66,21.9777,20,NaN,NaN,NaN,NaN,""
-315.523,21.9713,20,NaN,NaN,NaN,NaN,""
-311.651,21.9943,20,NaN,NaN,NaN,NaN,""
-298.898,22.0699,19.9998,NaN,NaN,NaN,NaN,""
[...]
261427,21.6926,19.9998,0.00130476,1541.63,0.000297822,351.89,""
263982,21.6025,19.9998,0.0012875,1544.94,0.000293882,352.646,""
266719,21.5539,19.9999,0.00126705,1548.44,0.000289214,353.444,""
269617,21.4795,19.9996,0.00124535,1552.07,0.000284261,354.274,""
272879,21.4195,19.9999,0.00122217,1556.1,0.00027897,355.192,""
275682,21.4229,19.9999,0.00120173,1559.5,0.000274305,355.968,""
278263,21.4,19.9999,0.00118696,1562.58,0.000270934,356.672,""
281650,21.4174,19.9999,0.00116485,1566.56,0.000265887,357.581,""
285086,21.4095,19.9995,0.00114472,1570.53,0.000261291,358.486,""
288175,21.4054,20.0001,0.00112495,1574.03,0.000256779,359.286,""
291358,21.4006,19.9998,0.00110809,1577.59,0.00025293,360.097,""
294382,21.3982,19.9998,0.0010884,1580.91,0.000248436,360.855,""
297476,21.3988,19.9997,0.00107314,1584.25,0.000244952,361.619,""
300620,21.3736,20.0001,0.00105493,1587.6,0.000240797,362.382,""
303573,21.3408,20,0.00103931,1590.69,0.00023723,363.088,""
306556,21.3895,19.9999,0.00102271,1593.76,0.000233443,363.79,""
309642,21.3587,19.9999,0.00100807,1596.9,0.0002301,364.505,""
313040,21.3308,20,0.000989837,1600.29,0.000225939,365.279,""
315753,21.3323,19.9997,0.000975942,1602.96,0.000222767,365.888,""
318240,21.3086,20.0001,0.000964892,1605.37,0.000220245,366.439,""
320704,21.2897,19.9998,0.000953267,1607.73,0.000217591,366.979,""
323228,21.2745,19.9997,0.000942099,1610.13,0.000215042,367.525,""
325841,21.2319,20,0.000930274,1612.57,0.000212343,368.083,""
328452,21.2645,19.9997,0.000918923,1614.98,0.000209752,368.633,""
331176,21.2832,19.9999,0.000905397,1617.47,0.000206664,369.2,""
333783,21.286,20.0003,0.000894898,1619.81,0.000204268,369.736,""
336671,21.3136,19.9995,0.000882073,1622.38,0.000201341,370.322,""
339117,21.3016,19.9995,0.000871623,1624.53,0.000198955,370.812,""
342005,21.2984,19.9996,0.000859988,1627.03,0.000196299,371.383,""
344574,21.3123,19.9997,0.000849952,1629.22,0.000194009,371.884,""
347098,21.3001,20.0002,0.000839696,1631.36,0.000191668,372.371,""
349906,21.3055,20,0.000829807,1633.7,0.00018941,372.906,""
353053,21.276,19.9996,0.000817381,1636.29,0.000186574,373.497,""
355545,21.2914,20,0.000810102,1638.32,0.000184913,373.959,""
358204,21.332,19.9999,0.000799462,1640.45,0.000182484,374.447,""
360844,21.3195,19.9999,0.000789423,1642.55,0.000180193,374.926,""
363973,21.2694,19.9998,0.000780167,1645.01,0.00017808,375.487,""
366798,21.3097,19.9999,0.000771603,1647.2,0.000176125,375.987,""
369467,21.3136,19.9999,0.000762785,1649.24,0.000174112,376.454,""
372253,21.2977,19.9997,0.000752849,1651.36,0.000171844,376.936,""
375122,21.3105,20,0.000746305,1653.51,0.00017035,377.427,""
377605,21.288,20,0.000738212,1655.35,0.000168503,377.847,""
380282,21.2589,20,0.000731486,1657.32,0.000166968,378.296,""
383040,21.2793,20.0003,0.000722378,1659.32,0.000164889,378.754,""
385832,21.2667,19.9996,0.000716533,1661.33,0.000163555,379.213,""
388621,21.2664,19.9998,0.000710942,1663.32,0.000162279,379.667,""
391537,21.2654,20.0002,0.000703679,1665.38,0.000160621,380.138,""
394512,21.2665,19.9994,0.000697893,1667.47,0.0001593,380.613,""
397170,21.2349,19.9996,0.000690238,1669.31,0.000157553,381.034,""
400147,21.2502,19.9999,0.000686013,1671.36,0.000156588,381.503,""
402886,21.2239,20.0001,0.000678965,1673.23,0.000154979,381.93,""
405633,21.2493,20,0.000675655,1675.1,0.000154224,382.355,""
408410,21.2494,19.9992,0.000671165,1676.96,0.000153199,382.781,""
410979,21.2969,20.0002,0.000666032,1678.68,0.000152027,383.173,""
413097,21.5137,20.0002,0.000664357,1680.09,0.000151645,383.495,""
413097,21.5137,20.0002,NaN,NaN,NaN,NaN,"Ampoule removed"
413100,21.5133,20.0002,NaN,NaN,NaN,NaN,""