Folder: CaloCem/TAInstCalorimetry/DATA (part 3)

File: myexp9.csv
Summary
Mass,4g
Name,"OPC"

"Time","Temperature","Heat flow","Heat","Normalized heat flow","Normalized heat","Time markers"
-5402.35,20,NaN,NaN,NaN,NaN,""
-5402.05,20,-1.00519e-05,NaN,-2.51296e-06,NaN,""
-5389.92,20,-1.02441e-05,NaN,-2.56103e-06,NaN,""
-5371.95,20,-9.71671e-06,NaN,-2.42918e-06,NaN,""
-5349.05,20,-9.3509e-06,NaN,-2.33773e-06,NaN,""
-5329.04,20,-9.87433e-06,NaN,-2.46858e-06,NaN,""
-5306.39,20,-9.73553e-06,NaN,-2.43388e-06,NaN,""
-5270.67,20,-1.05732e-05,NaN,-2.64329e-06,NaN,""
-5237.73,20,-9.68119e-06,NaN,-2.4203e-06,NaN,""
-5194.37,20,-9.15042e-06,NaN,-2.2876e-06,NaN,""
-5159.48,20,-8.05346e-06,NaN,-2.01336e-06,NaN,""
-5113.37,20,-8.31206e-06,NaN,-2.07801e-06,NaN,""
-5062.61,20,-7.5729e-06,NaN,-1.89322e-06,NaN,""
-5030.31,20,-7.41251e-06,NaN,-1.85313e-06,NaN,""
-4971.66,20,-6.10272e-06,NaN,-1.52568e-06,NaN,""
-4927.15,20,-6.30923e-06,NaN,-1.57731e-06,NaN,""
-4895.53,20,-5.13115e-06,NaN,-1.28279e-06,NaN,""
-4875.03,20,-4.87849e-06,NaN,-1.21962e-06,NaN,""
-4852.29,20,-4.57166e-06,NaN,-1.14292e-06,NaN,""
-4843.6,20,-4.96815e-06,NaN,-1.24204e-06,NaN,""
-4809.96,20,-4.29493e-06,NaN,-1.07373e-06,NaN,""
-4764.41,20,-3.46573e-06,NaN,-8.66433e-07,NaN,""
-4734.6,20,-2.67675e-06,NaN,-6.69188e-07,NaN,""
-4705.78,20,-1.93389e-06,NaN,-4.83472e-07,NaN,""
-4667.86,20,-1.99537e-06,NaN,-4.98843e-07,NaN,""
-4653.6,20,-1.38027e-06,NaN,-3.45066e-07,NaN,""
-4610.89,20,-1.27342e-06,NaN,-3.18356e-07,NaN,""
-4535.83,20,-1.46052e-07,NaN,-3.65131e-08,NaN,""
-4507.13,20,1.03717e-06,NaN,2.59292e-07,NaN,""
-4475.27,20,6.02328e-07,NaN,1.50582e-07,NaN,""
-4447.94,20,3.87056e-07,NaN,9.6764e-08,NaN,""
-4428.57,20,9.72683e-07,NaN,2.43171e-07,NaN,""
-4409.72,20,9.58305e-07,NaN,2.39576e-07,NaN,""
-4382.86,20,2.16683e-06,NaN,5.41707e-07,NaN,""
-4368.05,20,1.75869e-06,NaN,4.39672e-07,NaN,""
-4332.23,20,2.57608e-06,NaN,6.44019e-07,NaN,""
-4276.93,20,3.15221e-06,NaN,7.88052e-07,NaN,""
-4246.87,20,3.08297e-06,NaN,7.70743e-07,NaN,""
-4233.55,20,3.7524e-06,NaN,9.38101e-07,NaN,""
-4219.89,20,3.62349e-06,NaN,9.05872e-07,NaN,""
-4196.71,20,4.28049e-06,NaN,1.07012e-06,NaN,""
-4171.54,20,4.2711e-06,NaN,1.06778e-06,NaN,""
-4147.61,20,4.9902e-06,NaN,1.24755e-06,NaN,""
-4123.71,20,5.23777e-06,NaN,1.30944e-06,NaN,""
-4100.39,20,5.92845e-06,NaN,1.48211e-06,NaN,""
-4081.68,20,5.8033e-06,NaN,1.45082e-06,NaN,""
-4009.7,20,6.80395e-06,NaN,1.70099e-06,NaN,""
-3990.05,20,6.67808e-06,NaN,1.66952e-06,NaN,""
-3969.64,20,7.34882e-06,NaN,1.83721e-06,NaN,""
-3953.3,20,7.02087e-06,NaN,1.75522e-06,NaN,""
-3904.47,20,7.38045e-06,NaN,1.84511e-06,NaN,""
-3870.8,20,8.59983e-06,NaN,2.14996e-06,NaN,""
-3839.25,20,8.43122e-06,NaN,2.10781e-06,NaN,""
-3808.68,20,9.06403e-06,NaN,2.26601e-06,NaN,""
-3773.29,20,8.69944e-06,NaN,2.17486e-06,NaN,""
-3757.05,20,8.90884e-06,NaN,2.22721e-06,NaN,""
-3730.62,20,8.83088e-06,NaN,2.20772e-06,NaN,""
-3696.78,20,9.37945e-06,NaN,2.34486e-06,NaN,""
-3671.94,20,9.91915e-06,NaN,2.47979e-06,NaN,""
-3637.82,20,9.46619e-06,NaN,2.36655e-06,NaN,""
-3603.05,20,1.01272e-05,NaN,2.5318e-06,NaN,""
2454.24,20,NaN,NaN,NaN,NaN,"Reaction start. Measuring position. Signal correct"
2454.95,20,3.33279e-05,2.34619e-05,8.33197e-06,5.86547e-06,""
2733.95,20,0.157254,2.98077,0.0393135,0.745193,""
2784.95,20,0.255875,14.1783,0.0639687,3.54457,""
2840.95,20,0.252082,28.6721,0.0630206,7.16802,""
2947.45,20,0.185894,52.0986,0.0464734,13.0247,""
3052.39,20,0.129364,68.486,0.0323411,17.1215,""
3149.95,20,0.0918406,79.1714,0.0229601,19.7929,""
3269.17,20,0.0608675,88.1399,0.0152169,22.035,""
3429.95,20,0.0358782,95.7188,0.00896955,23.9297,""
3614.26,20,0.0206401,100.77,0.00516002,25.1926,""
3885.36,20,0.0105855,104.788,0.00264637,26.1971,""
4269.57,20,0.0057694,107.744,0.00144235,26.9359,""
5071.24,20,0.00348864,111.203,0.000872159,27.8008,""
6350.95,20,0.00254079,114.973,0.000635197,28.7432,""
8450.7,20,0.00188421,119.521,0.000471053,29.8803,""
10070.4,20,0.00167401,122.377,0.000418504,30.5943,""
11277.5,20,0.00168684,124.371,0.000421711,31.0928,""
12807.6,20,0.00186069,127.081,0.000465172,31.7702,""
14684.4,20,0.0021179,130.814,0.000529474,32.7034,""
16000.5,20,0.00231017,133.725,0.000577543,33.4311,""
17372.5,20,0.00254104,137.049,0.000635259,34.2622,""
18965.4,20,0.00285081,141.338,0.000712702,35.3344,""
20087.1,20,0.0030953,144.671,0.000773824,36.1676,""
21798,20,0.00350895,150.313,0.000877237,37.5782,""
23474.6,20,0.00395207,156.563,0.000988018,39.1409,""
25131.4,20,0.00441924,163.495,0.00110481,40.8738,""
26541.8,20,0.00483286,170.019,0.00120821,42.5048,""
28252.9,20,0.00533997,178.722,0.00133499,44.6806,""
29961.1,20,0.00584404,188.275,0.00146101,47.0688,""
31567.1,20,0.00630218,198.031,0.00157555,49.5077,""
33407.4,20,0.00679947,210.092,0.00169987,52.5231,""
35240.3,20,0.00724718,222.974,0.0018118,55.7435,""
36774.4,20,0.00758224,234.353,0.00189556,58.5883,""
38577.7,20,0.00791843,248.339,0.00197961,62.0847,""
39995.7,20,0.00813623,259.727,0.00203406,64.9317,""
41300.6,20,0.0083011,270.455,0.00207527,67.6138,""
42775.7,20,0.00844562,282.812,0.00211141,70.7031,""
44130,20,0.00853979,294.317,0.00213495,73.5794,""
46071.9,20,0.0086214,310.991,0.00215535,77.7478,""
47893.5,20,0.00864303,326.722,0.00216076,81.6805,""
50071.4,20,0.00861555,345.524,0.00215389,86.3811,""
51590.5,20,0.0085771,358.583,0.00214428,89.6458,""
53399.6,20,0.00855975,374.074,0.00213994,93.5185,""
55100.3,20,0.00860025,388.667,0.00215006,97.1667,""
56805.3,20,0.00858376,403.326,0.00214594,100.832,""
58469.9,20,0.00852374,417.57,0.00213093,104.393,""
60358.5,20,0.00839005,433.553,0.00209751,108.388,""
62511.2,20,0.00817897,451.392,0.00204474,112.848,""
64520.2,20,0.00796378,467.608,0.00199094,116.902,""
67141.5,20,0.0076693,488.103,0.00191732,122.026,""
68431.4,20,0.00752362,497.901,0.00188091,124.475,""
70170.4,20,0.00733087,510.817,0.00183272,127.704,""
72144.8,20,0.00711544,525.079,0.00177886,131.27,""
73355.2,20,0.00698414,533.613,0.00174604,133.403,""
74555.4,20,0.00685414,541.917,0.00171353,135.479,""
76128.7,20,0.00668724,552.568,0.00167181,138.142,""
77539.4,20,0.00654137,561.899,0.00163534,140.475,""
79304.7,20,0.00636171,573.286,0.00159043,143.322,""
81014.7,20,0.00619581,584.023,0.00154895,146.006,""
82439,20,0.00605956,592.751,0.00151489,148.188,""
83741.5,20,0.00593918,600.564,0.00148479,150.141,""
85664.4,20,0.0057729,611.825,0.00144323,152.956,""
87232.4,20,0.00563668,620.77,0.00140917,155.193,""
90105.2,20,0.00540235,636.625,0.00135059,159.156,""
91353.2,20,0.00530699,643.306,0.00132675,160.827,""
93088,20,0.00517472,652.398,0.00129368,163.099,""
94889.1,20,0.00504845,661.603,0.00126211,165.401,""
96407.7,20,0.00494714,669.192,0.00123678,167.298,""
97721.3,20,0.00486257,675.635,0.00121564,168.909,""
99091.3,20,0.00477373,682.235,0.00119343,170.559,""
100449,20,0.00468976,688.662,0.00117244,172.165,""
101946,20,0.00459901,695.612,0.00114975,173.903,""
103354,20,0.00452249,702.033,0.00113062,175.508,""
104848,20,0.00443747,708.726,0.00110937,177.181,""
106162,20,0.00436306,714.51,0.00109076,178.627,""
107421,20,0.00429475,719.959,0.00107369,179.99,""
108462,20,0.00423932,724.4,0.00105983,181.1,""
109904,20,0.00416596,730.461,0.00104149,182.615,""
111132,20,0.00410429,735.538,0.00102607,183.885,""
112391,20,0.00404331,740.669,0.00101083,185.167,""
113760,20,0.0039773,746.157,0.000994325,186.539,""
115505,20,0.0038986,753.032,0.00097465,188.258,""
[...]
194872,20,0.00187497,969.35,0.000468742,242.337,""
196698,20,0.00184542,972.747,0.000461354,243.187,""
198735,20,0.00181162,976.472,0.000452906,244.118,""
200661,20,0.00178292,979.933,0.00044573,244.983,""
202609,20,0.00175524,983.377,0.00043881,245.844,""
204695,20,0.00173007,987.012,0.000432519,246.753,""
206284,20,0.0017078,989.745,0.000426951,247.436,""
208963,20,0.00167326,994.273,0.000418316,248.568,""
211161,20,0.00164781,997.921,0.000411952,249.48,""
213046,20,0.00162527,1001.01,0.000406317,250.252,""
215209,20,0.00159982,1004.49,0.000399956,251.123,""
217181,20,0.00157753,1007.63,0.000394382,251.907,""
219367,20,0.00155705,1011.05,0.000389263,252.764,""
221934,20,0.00153333,1015.02,0.000383332,253.754,""
224135,20,0.00151073,1018.37,0.000377682,254.592,""
226004,20,0.00149417,1021.18,0.000373543,255.295,""
227808,20,0.00147922,1023.86,0.000369805,255.965,""
229418,20,0.00146699,1026.23,0.000366748,256.558,""
230958,20,0.00145483,1028.48,0.000363707,257.121,""
232965,20,0.00143748,1031.38,0.00035937,257.846,""
235310,20,0.00141945,1034.73,0.000354862,258.684,""
236794,20,0.00140707,1036.83,0.000351768,259.208,""
238640,20,0.00139375,1039.42,0.000348436,259.854,""
240321,20,0.00138124,1041.75,0.00034531,260.438,""
243044,20,0.00136295,1045.48,0.000340736,261.371,""
245224,20,0.00134889,1048.44,0.000337222,262.11,""
247437,20,0.00133635,1051.41,0.000334088,262.852,""
249272,20,0.0013312,1053.86,0.000332801,263.464,""
250738,20,0.00131791,1055.8,0.000329478,263.949,""
253268,20,0.00130005,1059.11,0.000325011,264.777,""
255313,20,0.00127964,1061.75,0.000319909,265.437,""
257165,20,0.00126704,1064.1,0.000316761,266.025,""
259871,20,0.00125182,1067.51,0.000312956,266.878,""
262575,20,0.00123288,1070.87,0.00030822,267.717,""
264388,20,0.00122072,1073.09,0.000305179,268.274,""
266127,20,0.001211,1075.21,0.00030275,268.802,""
268209,20,0.0011962,1077.72,0.000299051,269.429,""
269950,20,0.00118548,1079.79,0.00029637,269.947,""
272555,20,0.00116977,1082.86,0.000292442,270.714,""
274140,20,0.00115998,1084.7,0.000289995,271.176,""
275983,20,0.00114921,1086.83,0.000287303,271.708,""
278533,20,0.00113755,1089.75,0.000284386,272.437,""
280572,20,0.00112685,1092.05,0.000281713,273.014,""
282821,20,0.00111292,1094.57,0.000278231,273.643,""
284374,20,0.00110611,1096.3,0.000276529,274.074,""
285877,20,0.00110083,1097.96,0.000275207,274.489,""
287806,20,0.00109244,1100.07,0.00027311,275.018,""
289888,20,0.00108416,1102.34,0.000271039,275.585,""
291657,20,0.00107728,1104.25,0.00026932,276.062,""
293234,20,0.00107228,1105.94,0.00026807,276.486,""
294688,20,0.00106614,1107.5,0.000266535,276.875,""
296804,20,0.00105617,1109.74,0.000264043,277.436,""
298841,20,0.00104735,1111.89,0.000261838,277.972,""
300816,20,0.00103866,1113.95,0.000259666,278.487,""
302677,20,0.00103212,1115.88,0.00025803,278.969,""
305110,20,0.00102431,1118.38,0.000256078,279.595,""
307540,20,0.00101689,1120.86,0.000254222,280.215,""
309481,20,0.00100917,1122.83,0.000252294,280.707,""
311839,20,0.00100052,1125.2,0.00025013,281.299,""
313419,20,0.000993129,1126.77,0.000248282,281.693,""
315035,20,0.000988826,1128.37,0.000247206,282.093,""
316607,20,0.000980426,1129.92,0.000245107,282.48,""
318299,20,0.000974636,1131.58,0.000243659,282.894,""
320668,20,0.000967978,1133.88,0.000241994,283.469,""
322724,20,0.000965963,1135.86,0.000241491,283.966,""
322755,20,0.00096601,1135.89,0.000241503,283.973,""
322765,20,0.000966026,1135.9,0.000241507,283.976,""
322766,20,NaN,NaN,NaN,NaN,""
322767,20,NaN,NaN,NaN,NaN,""
322768,20,NaN,NaN,NaN,NaN,""
322768,20,NaN,NaN,NaN,NaN,"Ampoule removed"
322769,20,NaN,NaN,NaN,NaN,""
322770,20,NaN,NaN,NaN,NaN,""

File: myexp10.csv
Summary
,Component - OPC
Mass,4g
Name,"OPC"
ID,"Bernburg CEM I 42.5R 29.09.21"

"Time","Temperature [AmbientT(Therm3T)]","Temperature [Temperature]","Heat flow [Signal]","Heat [Signal]","Normalized heat flow [Signal]","Normalized heat [Signal]","Time markers"
-1883.05,24.5456,20,NaN,NaN,NaN,NaN,""
-1882.05,24.545,20,1.43069e-06,NaN,3.57673e-07,NaN,""
-1863.3,24.5329,20,1.3348e-06,NaN,3.337e-07,NaN,""
-1852.1,24.5661,19.9999,1.26242e-06,NaN,3.15605e-07,NaN,""
-1840.37,24.6008,19.9999,1.17901e-06,NaN,2.94753e-07,NaN,""
-1816.52,24.5518,19.9999,1.00946e-06,NaN,2.52365e-07,NaN,""
-1801.72,24.5438,19.9999,6.37132e-07,NaN,1.59283e-07,NaN,""
-1778.02,24.5537,20,4.08311e-08,NaN,1.02078e-08,NaN,""
-1763.41,24.5598,20,2.5859e-07,NaN,6.46475e-08,NaN,""
-1742.93,24.5684,20.0001,2.15583e-07,NaN,5.38957e-08,NaN,""
-1724.54,24.5691,20.0001,1.70784e-07,NaN,4.26959e-08,NaN,""
-1674.38,24.5711,20,-8.29417e-08,NaN,-2.07354e-08,NaN,""
-1654.04,24.5719,20,1.69346e-07,NaN,4.23364e-08,NaN,""
-1641.66,24.5724,20.0002,3.22853e-07,NaN,8.07133e-08,NaN,""
-1632.68,24.5728,20.0003,2.99157e-07,NaN,7.47894e-08,NaN,""
-1597.39,24.5742,20.0001,2.06002e-07,NaN,5.15005e-08,NaN,""
-1572.37,24.5533,20,-1.3887e-07,NaN,-3.47176e-08,NaN,""
-1558.2,24.5414,20,-2.98261e-07,NaN,-7.45652e-08,NaN,""
-1544.42,24.53,19.9999,-3.08065e-07,NaN,-7.70162e-08,NaN,""
-1530.64,24.5545,19.9999,-3.87086e-07,NaN,-9.67714e-08,NaN,""
-1506.95,24.5967,19.9998,-7.27078e-07,NaN,-1.81769e-07,NaN,""
-1484.11,24.5803,19.9998,-1.05472e-06,NaN,-2.63679e-07,NaN,""
-1465.9,24.5686,19.9997,-9.33178e-07,NaN,-2.33295e-07,NaN,""
-1447.68,24.5675,19.9997,-8.11639e-07,NaN,-2.0291e-07,NaN,""
-1444.22,24.5673,19.9997,-8.61714e-07,NaN,-2.15429e-07,NaN,""
-1433.8,24.5668,19.9998,-1.01239e-06,NaN,-2.53098e-07,NaN,""
-1407.74,24.5653,20,-5.8626e-07,NaN,-1.46565e-07,NaN,""
-1388.37,24.5642,20.0001,-4.39495e-07,NaN,-1.09874e-07,NaN,""
-1359.35,24.5626,20.0002,-2.19644e-07,NaN,-5.4911e-08,NaN,""
-1344.73,24.5728,19.9998,-5.1688e-08,NaN,-1.2922e-08,NaN,""
-1330.1,24.584,19.9995,1.95601e-07,NaN,4.89002e-08,NaN,""
-1312.7,24.5974,19.9996,4.25892e-07,NaN,1.06473e-07,NaN,""
-1299.15,24.5981,19.9996,3.96052e-07,NaN,9.90129e-08,NaN,""
-1285.6,24.5824,19.9996,3.56927e-07,NaN,8.92317e-08,NaN,""
-1271.02,24.5853,19.9997,2.844e-07,NaN,7.10999e-08,NaN,""
-1262.8,24.6166,19.9998,2.43494e-07,NaN,6.08734e-08,NaN,""
-1240.92,24.5875,20.0002,1.34599e-07,NaN,3.36498e-08,NaN,""
-1227.69,24.5341,20.0004,3.84906e-07,NaN,9.62266e-08,NaN,""
-1222.55,24.5322,20.0004,4.82338e-07,NaN,1.20585e-07,NaN,""
-1210.43,24.5564,20.0003,6.70848e-07,NaN,1.67712e-07,NaN,""
-1198.31,24.5735,20.0003,6.3537e-07,NaN,1.58843e-07,NaN,""
-1183.83,24.5733,20.0001,5.92961e-07,NaN,1.4824e-07,NaN,""
-1183.33,24.5733,20.0001,5.91497e-07,NaN,1.47874e-07,NaN,""
-1173.1,24.5732,19.9999,8.76945e-07,NaN,2.19236e-07,NaN,""
-1167.45,24.5731,19.9999,8.96086e-07,NaN,2.24022e-07,NaN,""
-1154.38,24.573,19.9999,8.64796e-07,NaN,2.16199e-07,NaN,""
-1141.31,24.5898,19.9999,6.43206e-07,NaN,1.60801e-07,NaN,""
-1129.05,24.6056,20,1.03896e-07,NaN,2.5974e-08,NaN,""
-1123.16,24.6132,20,7.08971e-08,NaN,1.77243e-08,NaN,""
-1117.57,24.5912,20,3.75111e-08,NaN,9.37777e-09,NaN,""
-1106.6,24.5479,20,-9.89836e-08,NaN,-2.47459e-08,NaN,""
-1094.45,24.5668,20.0001,-2.5011e-07,NaN,-6.25274e-08,NaN,""
-1082.31,24.5857,20.0001,-2.26559e-07,NaN,-5.66398e-08,NaN,""
-1067.75,24.5836,20.0002,-1.8224e-07,NaN,-4.55599e-08,NaN,""
-1049.22,24.5655,19.9999,-1.48413e-07,NaN,-3.71032e-08,NaN,""
-1036.23,24.5544,19.9997,-1.59995e-07,NaN,-3.99989e-08,NaN,""
-1003.49,24.5788,19.9998,-1.89186e-07,NaN,-4.72964e-08,NaN,""
-984.775,24.5926,19.9999,-6.05134e-08,NaN,-1.51284e-08,NaN,""
-966.062,24.5931,20.0001,6.81589e-08,NaN,1.70397e-08,NaN,""
-951.71,24.5935,20.0002,-8.29216e-08,NaN,-2.07304e-08,NaN,""
-922.754,24.5942,20.0003,-3.8773e-07,NaN,-9.69325e-08,NaN,""
-912.671,24.5945,20.0001,-4.93876e-07,NaN,-1.23469e-07,NaN,""
-902.136,24.6139,19.9999,-4.87084e-07,NaN,-1.21771e-07,NaN,""
-891.601,24.6333,19.9997,-4.72802e-07,NaN,-1.18201e-07,NaN,""
-886.054,24.548,19.9998,-4.65282e-07,NaN,-1.16321e-07,NaN,""
-867.609,24.5762,20,-4.40276e-07,NaN,-1.10069e-07,NaN,""
-849.849,24.5788,20.0001,-4.16198e-07,NaN,-1.0405e-07,NaN,""
-832.089,24.5814,20,-3.92121e-07,NaN,-9.80303e-08,NaN,""
-826.429,24.5552,20,-3.84448e-07,NaN,-9.6112e-08,NaN,""
-818.054,24.5164,19.9999,-7.44313e-08,NaN,-1.86078e-08,NaN,""
-812.398,24.5335,19.9999,-2.20931e-08,NaN,-5.52327e-09,NaN,""
-802.522,24.5634,19.9998,-2.26954e-07,NaN,-5.67386e-08,NaN,""
-792.647,24.5739,19.9997,-4.31816e-07,NaN,-1.07954e-07,NaN,""
-777.647,24.5679,19.9995,-6.00936e-07,NaN,-1.50234e-07,NaN,""
-765.78,24.5631,19.9996,-6.21444e-07,NaN,-1.55361e-07,NaN,""
-753.913,24.5751,19.9998,-5.90455e-07,NaN,-1.47614e-07,NaN,""
-736.962,24.6013,20,-5.02888e-07,NaN,-1.25722e-07,NaN,""
-721.581,24.6092,20,-4.23428e-07,NaN,-1.05857e-07,NaN,""
-706.199,24.5922,19.9999,-3.19886e-07,NaN,-7.99715e-08,NaN,""
-694.851,24.5796,19.9996,-2.26718e-07,NaN,-5.66795e-08,NaN,""
-675.117,24.5577,19.9996,-6.47e-08,NaN,-1.6175e-08,NaN,""
-664.216,24.5625,19.9996,-1.44518e-07,NaN,-3.61296e-08,NaN,""
-653.316,24.5715,19.9997,-2.24337e-07,NaN,-5.60842e-08,NaN,""
-626.523,24.5934,19.9999,2.81086e-07,NaN,7.02715e-08,NaN,""
-606.104,24.5985,20,3.04322e-07,NaN,7.60806e-08,NaN,""
-585.684,24.5958,19.9999,3.27559e-07,NaN,8.18897e-08,NaN,""
-570.1,24.5937,19.9999,8.8289e-08,NaN,2.20723e-08,NaN,""
-541.742,24.5898,20.0001,-3.47114e-07,NaN,-8.67785e-08,NaN,""
-531.488,24.5884,20,-1.78919e-07,NaN,-4.47298e-08,NaN,""
-521.234,24.587,19.9999,-1.07247e-08,NaN,-2.68118e-09,NaN,""
-507.632,24.5865,19.9997,-5.03801e-08,NaN,-1.2595e-08,NaN,""
-494.031,24.5862,19.9996,-9.00354e-08,NaN,-2.25088e-08,NaN,""
-472.21,24.5857,19.9996,1.45408e-07,NaN,3.63521e-08,NaN,""
-456.513,24.5853,19.9998,3.14784e-07,NaN,7.8696e-08,NaN,""
-444.708,24.5851,19.9999,2.32814e-07,NaN,5.82035e-08,NaN,""
-423.921,24.5846,19.9998,8.84714e-08,NaN,2.21178e-08,NaN,""
-411.462,24.5843,19.9996,2.6262e-07,NaN,6.56551e-08,NaN,""
-407.865,24.5843,19.9996,3.12911e-07,NaN,7.82278e-08,NaN,""
-399.079,24.6121,19.9996,4.35708e-07,NaN,1.08927e-07,NaN,""
-386.62,24.6515,19.9998,3.03524e-07,NaN,7.58809e-08,NaN,""
-373.2,24.6492,20,1.59112e-07,NaN,3.97779e-08,NaN,""
-363.746,24.625,19.9999,3.83932e-07,NaN,9.59831e-08,NaN,""
-354.741,24.62,19.9999,6.38527e-07,NaN,1.59632e-07,NaN,""
-345.735,24.6189,19.9999,4.50963e-07,NaN,1.12741e-07,NaN,""
-340.805,24.6183,19.9999,4.31103e-07,NaN,1.07776e-07,NaN,""
-317.585,24.6155,19.9998,5.44874e-07,NaN,1.36219e-07,NaN,""
-299.785,24.6133,19.9998,1.18157e-07,NaN,2.95392e-08,NaN,""
-281.984,24.6112,19.9997,-3.0856e-07,NaN,-7.714e-08,NaN,""
-251.955,24.6076,19.9997,-4.04001e-07,NaN,-1.01e-07,NaN,""
-234.863,24.6101,19.9998,-5.34774e-07,NaN,-1.33694e-07,NaN,""
-221.99,24.612,20,-6.49532e-07,NaN,-1.62383e-07,NaN,""
-209.179,24.6139,20.0002,-3.21733e-07,NaN,-8.04333e-08,NaN,""
-198.882,24.6154,20.0003,-4.73829e-07,NaN,-1.18457e-07,NaN,""
-188.585,24.6169,20.0003,-6.25925e-07,NaN,-1.56481e-07,NaN,""
-170.377,24.6196,20.0004,-3.61164e-07,NaN,-9.0291e-08,NaN,""
-154.921,24.6219,20.0001,-1.36419e-07,NaN,-3.41048e-08,NaN,""
-147.175,24.623,19.9998,-3.10194e-08,NaN,-7.75485e-09,NaN,""
-139.429,24.6242,19.9996,7.03932e-08,NaN,1.75983e-08,NaN,""
-130.923,24.6254,19.9996,1.81753e-07,NaN,4.54382e-08,NaN,""
[...]
161905,24.4138,19.9996,0.0059829,477.18,0.00149573,119.295,""
164001,24.4123,19.9998,0.00591046,489.647,0.00147761,122.412,""
166059,24.4054,19.9997,0.00583566,501.735,0.00145892,125.434,""
167967,24.4263,19.9999,0.00576511,512.803,0.00144128,128.201,""
170005,24.4413,19.9997,0.00568679,524.469,0.0014217,131.117,""
171893,24.478,20,0.00561391,535.14,0.00140348,133.785,""
173806,24.4598,19.9998,0.00553884,545.808,0.00138471,136.452,""
175741,24.4967,19.9995,0.00546201,556.45,0.0013655,139.113,""
177698,24.5469,19.9997,0.00538549,567.064,0.00134637,141.766,""
179609,24.528,19.9999,0.00531005,577.286,0.00132751,144.321,""
181318,24.5227,20.0002,0.00524454,586.3,0.00131114,146.575,""
183196,24.5365,19.9999,0.0051733,596.084,0.00129333,149.021,""
184972,24.5495,19.9999,0.00510764,605.212,0.00127691,151.303,""
186866,24.5735,19.9997,0.00503961,614.821,0.0012599,153.705,""
189069,24.609,19.9997,0.00496364,625.841,0.00124091,156.46,""
191040,24.6061,20,0.0048994,635.56,0.00122485,158.89,""
192945,24.6195,20,0.00483954,644.835,0.00120989,161.209,""
194720,24.6389,19.9997,0.0047859,653.379,0.00119648,163.345,""
196682,24.6208,19.9994,0.0047291,662.709,0.00118228,165.677,""
198996,24.5792,19.9999,0.00466428,673.58,0.00116607,168.395,""
200671,24.5777,20.0001,0.00461832,681.352,0.00115458,170.338,""
202413,24.5378,20,0.00457175,689.358,0.00114294,172.34,""
204372,24.5232,19.9997,0.00451982,698.265,0.00112995,174.566,""
206113,24.5421,19.9999,0.00447438,706.091,0.0011186,176.523,""
207991,24.5126,19.9994,0.00442529,714.449,0.00110632,178.612,""
209795,24.511,20,0.00437799,722.388,0.0010945,180.597,""
211578,24.4703,19.9998,0.00433386,730.154,0.00108346,182.538,""
213318,24.4274,20,0.00428514,737.651,0.00107128,184.413,""
215203,24.4467,19.9999,0.00423432,745.681,0.00105858,186.42,""
217160,24.4659,19.9998,0.00418097,753.917,0.00104524,188.479,""
219192,24.4242,20,0.00412391,762.355,0.00103098,190.589,""
221277,24.4295,20,0.00406369,770.89,0.00101592,192.723,""
223284,24.4238,19.9999,0.00400344,778.984,0.00100086,194.746,""
225234,24.4259,20,0.00394323,786.735,0.000985809,196.684,""
227110,24.4265,20,0.00388271,794.074,0.000970678,198.519,""
229041,24.4068,19.9997,0.00381837,801.511,0.000954592,200.378,""
230804,24.373,19.9997,0.00375802,808.189,0.000939504,202.047,""
232721,24.3753,19.9995,0.00369109,815.331,0.000922773,203.833,""
234628,24.3684,19.9998,0.00362212,822.301,0.00090553,205.575,""
236637,24.354,20,0.00354741,829.503,0.000886853,207.376,""
238578,24.3471,19.9996,0.00347311,836.319,0.000868278,209.08,""
240490,24.3411,20.0002,0.00339958,842.889,0.000849895,210.722,""
242606,24.3954,19.9998,0.00331725,849.998,0.000829313,212.5,""
244395,24.3459,20.0002,0.00324742,855.87,0.000811856,213.967,""
246489,24.3552,19.9997,0.00316536,862.582,0.00079134,215.646,""
248503,24.4666,19.9994,0.00308695,868.88,0.000771736,217.22,""
250301,24.4535,19.9998,0.00301803,874.369,0.000754507,218.592,""
252401,24.5134,19.9995,0.00293866,880.624,0.000734665,220.156,""
254455,24.5211,19.9998,0.00286225,886.58,0.000715563,221.645,""
256685,24.5814,19.9998,0.00278144,892.872,0.000695361,223.218,""
258579,24.5906,20,0.00271547,898.079,0.000678867,224.52,""
260718,24.634,20.0001,0.00264204,903.805,0.00066051,225.951,""
262610,24.6253,20.0002,0.0025805,908.747,0.000645125,227.187,""
264307,24.7467,19.9999,0.00252725,913.081,0.000631813,228.27,""
265989,24.7729,19.9997,0.00247652,917.288,0.00061913,229.322,""
267748,24.8489,19.9999,0.00242559,921.6,0.000606399,230.4,""
268807,24.9119,20,0.00239582,924.152,0.000598954,231.038,""
268808,24.9139,20,NaN,NaN,NaN,NaN,"Ampoule removed"
268810,24.9221,20,NaN,NaN,NaN,NaN,""